time,seconds_elapsed,rotationRateX,rotationRateY,rotationRateZ,gravityX,gravityY,gravityZ,accelerationX,accelerationY,accelerationZ,quaternionW,quaternionX,quaternionY,quaternionZ
1714155382402899000,0.03789892578125,-0.036779988557100296,-0.0017799076158553362,-0.09631805121898651,-0.09790565073490143,-0.2970042824745178,-0.9498436450958252,-0.005640469491481781,-0.01528206467628479,0.0029594898223876953,0.9873813058751623,0.1503999893271683,-0.049578440787157306,0
1714155382412889000,0.04788916015625,-0.028187565505504608,-0.00008613709360361099,-0.09233023226261139,-0.09785189479589462,-0.297007292509079,-0.9498482346534729,-0.009249523282051086,-0.013158053159713745,0.0036812424659729004,0.9873822963473695,0.15037788770864252,-0.04962233153275582,-0.00046724780675436173
1714155382422878000,0.0578779296875,-0.014120271429419518,-0.006212472915649414,-0.08806651830673218,-0.09771308302879333,-0.2970871031284332,-0.9498375654220581,-0.008198156952857971,-0.006120264530181885,0.0053795576095581055,0.9873793843211477,0.15039583110751795,-0.04962163832359024,-0.0009231661389144247
1714155382432868000,0.0678681640625,-0.010326865129172802,-0.01076195016503334,-0.08314419537782669,-0.09765257686376572,-0.29718172550201416,-0.9498142004013062,-0.004581287503242493,0.0010544657707214355,0.0035098791122436523,0.9873730110721155,0.15042333710801487,-0.049656034807378194,-0.0013477852215570026
1714155382442857000,0.07785693359375,-0.004687781911343336,-0.00883249007165432,-0.0807466134428978,-0.09765320271253586,-0.2973029315471649,-0.9497761726379395,-0.0017730370163917542,0.0020149052143096924,0.0033498406410217285,0.9873626868239949,0.15046610118800421,-0.04971775128691028,-0.001746901255967083
1714155382452847000,0.08784716796875,-0.012161942198872566,-0.014021392911672592,-0.07507327944040298,-0.09768475592136383,-0.29734987020492554,-0.9497582316398621,-0.00023087114095687866,-0.0021343231201171875,0.0030114054679870605,0.9873574342591322,0.15047156514696589,-0.049791355907255905,-0.002123246386508248
1714155382462836000,0.0978359375,-0.005681939423084259,-0.024856198579072952,-0.06885653734207153,-0.09775792062282562,-0.2974233329296112,-0.9497277140617371,0.0025736168026924133,-0.007843941450119019,0.0016686320304870605,0.9873489001070787,0.15049180844000604,-0.04988337969195809,-0.002480799918546068
1714155382472826400,0.107826416015625,0.0013059289194643497,-0.022818347439169884,-0.06240742281079292,-0.09784384816884995,-0.29761531949043274,-0.9496587514877319,0.0075575560331344604,-0.010230839252471924,-0.0001245737075805664,0.9873345824311566,0.1507165547259015,-0.04954948736450214,0
1714155382482815500,0.1178154296875,0.01238180324435234,-0.022630861029028893,-0.06271754950284958,-0.09791381657123566,-0.2978951334953308,-0.9495638012886047,0.006681479513645172,-0.0064262449741363525,-0.0005857348442077637,0.9873104729788101,0.15084551451174705,-0.04963604320056447,-0.0003266762955489687
1714155382492805400,0.127805419921875,0.028251314535737038,-0.020677432417869568,-0.05139618366956711,-0.09801504760980606,-0.2982700765132904,-0.9494356513023376,0.003410525619983673,0.0003421604633331299,-0.0021024346351623535,0.9872779049428334,0.15102568695717006,-0.04973352995186072,-0.0006177157202482061
1714155382502795800,0.137795654296875,0.02839059568941593,-0.01491222158074379,-0.047873955219984055,-0.0980852022767067,-0.2986539900302887,-0.9493076801300049,0.0007493495941162109,0.0011380314826965332,-0.0018031001091003418,0.9872452486493863,0.15121214554378498,-0.0498100434263416,-0.0008738010661355176
1714155382512784400,0.147784423828125,0.022883977741003036,-0.013463195413351059,-0.046739980578422546,-0.09810728579759598,-0.2989315986633301,-0.9492180347442627,-0.00200565904378891,-0.000827401876449585,-0.0004431605339050293,0.9872223090038585,0.15134395284213342,-0.04985971514659414,-0.0011165276135279116
1714155382522774800,0.15777490234375,0.022378457710146904,-0.011535066179931164,-0.050101157277822495,-0.0980859249830246,-0.2991480529308319,-0.9491520524024963,-0.0033545345067977905,-0.0010382235050201416,0.002191603183746338,0.9872052862588744,0.15144339482810168,-0.04988861841792359,-0.0013691271664000026
1714155382532763400,0.167763427734375,0.018847638741135597,-0.008751530200242996,-0.055395521223545074,-0.09802944958209991,-0.2994149923324585,-0.9490737318992615,-0.00301428884267807,-0.001000136137008667,0.0015639662742614746,0.9871851037744772,0.15156765831683214,-0.04990376865789037,-0.00164634347663975
1714155382542753800,0.17775390625,0.026396101340651512,-0.007040449418127537,-0.054419003427028656,-0.09792999923229218,-0.2997500002384186,-0.9489781856536865,-0.0022592470049858093,-0.002664029598236084,-0.00007265806198120117,0.9871603264281509,0.15172763751946594,-0.0498960561554677,-0.001914006631180066
1714155382552742400,0.187742431640625,0.027326077222824097,-0.012856526300311089,-0.04903888702392578,-0.09779258072376251,-0.3001258075237274,-0.9488735795021057,-0.0011454373598098755,-0.002868056297302246,-0.0011996030807495117,0.9871333443223085,0.1519092367767546,-0.04986762117126832,-0.0021703752423180463
1714155382562732800,0.19773291015625,0.02867688611149788,-0.007878545671701431,-0.048037536442279816,-0.0976991131901741,-0.3004904091358185,-0.9487678408622742,-0.0004454478621482849,0.00001424551010131836,0.0006629824638366699,0.9871059558610245,0.15208576272835939,-0.04985985287258179,-0.002415746689681416
1714155382572721400,0.207721435546875,0.01923278346657753,-0.0039586396887898445,-0.040865909308195114,-0.09759719669818878,-0.300713449716568,-0.948707640171051,0.001100584864616394,0.00138169527053833,0.0010758638381958008,0.9870901414835481,0.15219014469567577,-0.04984305472630926,-0.002634797413621392
1714155382582711800,0.2177119140625,0.004850969184190035,-0.006120859645307064,-0.03864683210849762,-0.09751392155885696,-0.30082911252975464,-0.9486795663833618,-0.0006611570715904236,0.0003224313259124756,0.0006510019302368164,0.987082506311223,0.15223934815970658,-0.04983376214869426,-0.0028446861215503175
1714155382592701700,0.22770166015625,-0.002605881541967392,-0.009352872148156166,-0.034707751125097275,-0.09749291837215424,-0.30086442828178406,-0.948670506477356,-0.00014811009168624878,-0.0032280683517456055,0.004380404949188232,0.9870796888883449,0.15224809046914528,-0.049852390575193445,-0.0030333683131648116
1714155382602690800,0.23769091796875,0.0020828258711844683,-0.013573449105024338,-0.029036816209554672,-0.09754518419504166,-0.3008669912815094,-0.9486643075942993,0.003703594207763672,-0.006475627422332764,0.008906066417694092,0.9870774836862609,0.15224105514298747,-0.04990492654010638,-0.0032017480994723443
1714155382612680700,0.2476806640625,0.012871291488409042,-0.01738682948052883,-0.029699675738811493,-0.09764081239700317,-0.30095380544662476,-0.9486269354820251,0.00866677612066269,-0.006083667278289795,0.009250164031982422,0.9870674965523004,0.15227871186557207,-0.049977201245705864,-0.003352169876923959
1714155382622669800,0.257669921875,0.02977043390274048,-0.00991746224462986,-0.030718935653567314,-0.09770365804433823,-0.30118510127067566,-0.9485470652580261,0.009797737002372742,-0.0000998079776763916,0.010619878768920898,0.9870467957647201,0.15239141229292166,-0.050033207718438256,-0.0034994594665303455
1714155382632659700,0.26765966796875,0.03297155350446701,-0.012896474450826645,-0.03781412914395332,-0.09770917892456055,-0.301537424325943,-0.9484345316886902,0.007605992257595062,0.00478440523147583,0.009347677230834961,0.9870176752499004,0.1525659757141066,-0.050063439871305716,-0.003663413936387583
1714155382642648600,0.277648681640625,0.023959361016750336,-0.01563873142004013,-0.04176752269268036,-0.0977439284324646,-0.30184975266456604,-0.9483315944671631,0.006603144109249115,0.002411186695098877,0.008558094501495361,0.9869909420980364,0.15271905570292466,-0.0501106891468048,-0.0038425632367184194
1714155382652638700,0.287638671875,0.020885009318590164,-0.018966617062687874,-0.04807868227362633,-0.09776825457811356,-0.3020927608013153,-0.9482517242431641,0.008519567549228668,-0.0033577680587768555,0.004724562168121338,0.9869698366318898,0.15283417310769418,-0.050158240800085845,-0.004060241471709365
1714155382662627600,0.297627685546875,0.012325077317655087,-0.015911972150206566,-0.04844992980360985,-0.09777891635894775,-0.30227580666542053,-0.948192298412323,0.01043757051229477,-0.007752358913421631,0.0014455318450927734,0.9869537923147433,0.15291690323862384,-0.05020229627035926,-0.004302262366586439
1714155382672617700,0.30761767578125,0.011719740927219391,-0.01217209454625845,-0.047893863171339035,-0.09775390475988388,-0.3024592101573944,-0.9481363892555237,0.007192954421043396,-0.008850693702697754,-0.00024306774139404297,0.9869385825745937,0.15299984445870068,-0.050227985186126034,-0.004542382195947471
1714155382682606600,0.317606689453125,0.014362235553562641,-0.0017583358567208052,-0.051992267370224,-0.0976315438747406,-0.3027133643627167,-0.9480679035186768,0.003744177520275116,-0.007543683052062988,-0.0018832683563232422,0.9869200327178985,0.15311849301725627,-0.05020737535663342,-0.004799506191129958
1714155382692596700,0.3275966796875,0.035484034568071365,-0.00012635067105293274,-0.051903314888477325,-0.09743408858776093,-0.30307862162590027,-0.9479714632034302,0.0005102306604385376,-0.005942434072494507,-0.004268467426300049,0.9868942156999815,0.15329486078872978,-0.05014919500094131,-0.005054999461397907
1714155382702586600,0.337586669921875,0.04864926263689995,0.005143512040376663,-0.04860452562570572,-0.09719966351985931,-0.3035375475883484,-0.9478487372398376,0.00010795146226882935,-0.0002955496311187744,-0.0074430108070373535,0.9868619546240105,0.153521283474649,-0.05006853469359825,-0.005282008091419169
1714155382712575700,0.34757568359375,0.056817177683115005,0.015384698286652565,-0.04470831900835037,-0.09690426290035248,-0.30404821038246155,-0.9477152824401855,-0.0013318434357643127,0.0040450990200042725,-0.010155141353607178,0.9868270688763381,0.15377562433941147,-0.04995412451485585,-0.005488186479957559
1714155382722565600,0.357565673828125,0.054594770073890686,0.023261530324816704,-0.04623611271381378,-0.09654046595096588,-0.304605633020401,-0.9475734233856201,-0.0029468759894371033,0.006662428379058838,-0.010983705520629883,0.9867900361876583,0.15405465290225695,-0.04980422138055638,-0.005686795643228989
1714155382732554800,0.3675546875,0.050676729530096054,0.02678648941218853,-0.04683079570531845,-0.09609965234994888,-0.305179625749588,-0.9474335312843323,-0.004471048712730408,0.0023994147777557373,-0.01416003704071045,0.9867533206354998,0.15434191792250543,-0.04961670887957488,-0.005893572155028788
1714155382742544600,0.377544677734375,0.0412466861307621,0.0281755942851305,-0.04460465535521507,-0.09563794732093811,-0.3057049512863159,-0.9473108649253845,-0.005070090293884277,0.000056117773056030273,-0.016067981719970703,0.9867210254292875,0.15460427419127404,-0.049417484601904746,-0.006094909305843693
1714155382752533800,0.38753369140625,0.04213991016149521,0.038610659539699554,-0.043596915900707245,-0.09514803439378738,-0.3061896562576294,-0.9472036361694336,-0.004461377859115601,-0.0027398765087127686,-0.01704496145248413,0.9866927079432914,0.15484630566524338,-0.04920156992118569,-0.006282442436436858
1714155382762523600,0.397523681640625,0.03779283165931702,0.03944050148129463,-0.04516451805830002,-0.09463167190551758,-0.30664974451065063,-0.9471065402030945,-0.005008243024349213,-0.0024323463439941406,-0.013403654098510742,0.9866669118537648,0.15507602338583343,-0.04897101936389212,-0.006462941225435909
1714155382772512800,0.4075126953125,0.03132668137550354,0.04578707739710808,-0.048206645995378494,-0.09409888833761215,-0.3070243299007416,-0.9470382332801819,-0.006746478378772736,-0.002271413803100586,-0.01215970516204834,0.9866483592164154,0.15526117502923584,-0.04873229141491649,-0.006648101651319332
1714155382782502700,0.417502685546875,0.020470675081014633,0.05386631190776825,-0.04893242567777634,-0.0934995710849762,-0.3072711229324341,-0.9470176100730896,-0.008490204811096191,-0.002757042646408081,-0.0091744065284729,0.9866418284881742,0.15537939850150154,-0.048460821091448836,-0.0068457342317201735
1714155382792491800,0.42749169921875,0.019287433475255966,0.051960285753011703,-0.05372398719191551,-0.09287481009960175,-0.30740979313850403,-0.9470340609550476,-0.010076269507408142,-0.006402522325515747,-0.009203732013702393,0.9866446785098495,0.15544171391583522,-0.04817513519418472,-0.007040160156486432
1714155382802481700,0.437481689453125,0.020368782803416252,0.06250400841236115,-0.06183091551065445,-0.09219004213809967,-0.3075360059738159,-0.9470599889755249,-0.010379575192928314,-0.010426729917526245,-0.008079111576080322,0.986649510112407,0.15549554709390334,-0.04786582947517619,-0.007278522510981898
1714155382812471600,0.447471435546875,0.02511187270283699,0.0658169761300087,-0.07142788171768188,-0.09141724556684494,-0.3077167868614197,-0.9470762014389038,-0.010938741266727448,-0.009681403636932373,-0.0035158395767211914,0.9866515062816613,0.15557597687871372,-0.04751868587680845,-0.007557462198839744
1714155382822460700,0.457460693359375,0.03551290184259415,0.0747300460934639,-0.08647414296865463,-0.09055586159229279,-0.30798396468162537,-0.9470720887184143,-0.013737984001636505,-0.01060435175895691,0.000783085823059082,0.9866479623699916,0.15569955788489404,-0.047133898072569964,-0.007878201270753712
1714155382832450600,0.467450439453125,0.045313335955142975,0.0709155946969986,-0.10189331322908401,-0.08961045742034912,-0.3084138035774231,-0.9470221400260925,-0.016316086053848267,-0.013363629579544067,0.0021979212760925293,0.9866320483543048,0.15590447696450474,-0.046719695492944045,-0.008273780000662423
1714155382842439700,0.477439697265625,0.05018340051174164,0.06256632506847382,-0.11050710827112198,-0.08869366347789764,-0.3089461624622345,-0.9469348788261414,-0.013555511832237244,-0.015287935733795166,0.0016682147979736328,0.9866059391546493,0.15615996758593015,-0.04633155387049761,-0.008735631936613707
1714155382852429600,0.4874296875,0.038310229778289795,0.06089572608470917,-0.12278161197900772,-0.08780611306428909,-0.3094314932823181,-0.9468591213226318,-0.008568428456783295,-0.014665275812149048,0.00020390748977661133,0.9865820611709268,0.15638909718476848,-0.04596602477802154,-0.00924744667562584
1714155382862418700,0.497418701171875,0.019257284700870514,0.06052607670426369,-0.12020713835954666,-0.08691946417093277,-0.3097940981388092,-0.9468224048614502,-0.008020751178264618,-0.01822417974472046,0.0037071704864501953,0.9865675463666306,0.15655349869068425,-0.04560490690862905,-0.00978954368057016
1714155385769376300,3.404376220703125,0.0144469253718853,0.016172461211681366,-0.023532461374998093,-0.11100877076387405,-0.6115249395370483,-0.7833992838859558,-0.016234323382377625,-0.001863241195678711,-0.005464792251586914,0.928720172578994,0.3290893262503728,0.0007643465596820359,0.17081759797974494
1714155385779366100,3.4143662109375,0.00908651389181614,0.026764385402202606,-0.03364528343081474,-0.11086787283420563,-0.6117444038391113,-0.7832478284835815,-0.014803573489189148,0.007725119590759277,-0.005814611911773682,0.9286922650617846,0.32920417224582593,0.0008365263580337942,0.17074757217893155
1714155385789356300,3.424356201171875,-0.015861978754401207,0.03010026179254055,-0.03140423446893692,-0.11063764244318008,-0.6118211150169373,-0.7832204699516296,-0.012638166546821594,0.009678661823272705,-0.00022673606872558594,0.9286982497661157,0.32922466110575715,0.0009385226344230356,0.17067502197489415
1714155385799345200,3.43434521484375,-0.04462859407067299,0.020308883860707283,-0.024261170998215675,-0.11048848181962967,-0.611652672290802,-0.7833731174468994,-0.00955246388912201,-0.0010488629341125488,0.0034049153327941895,0.9287492689043816,0.3291086399489212,0.0009783287555575736,0.1706210513825306
1714155385809335300,3.444335205078125,-0.06598314642906189,0.012399295344948769,-0.034428853541612625,-0.11043968051671982,-0.6113074421882629,-0.7836493849754333,-0.006229080259799957,-0.010900318622589111,0.006809234619140625,0.9288368968445762,0.32889882530573905,0.0009402295768455408,0.17054837678675944
1714155385819324200,3.45432421875,-0.07863731682300568,0.026379825547337532,-0.051944997161626816,-0.11022068560123444,-0.6108644008636475,-0.7840256094932556,-0.005761429667472839,-0.00852048397064209,0.00994729995727539,0.9289642743943756,0.3286126435520192,0.0009552636120259712,0.17040655717651831
1714155385829314300,3.464314208984375,-0.0864505022764206,0.025426680222153664,-0.04932710900902748,-0.1098412498831749,-0.6103610992431641,-0.7844706773757935,-0.011450909078121185,-0.004064679145812988,0.011521637439727783,0.9291160084351588,0.32827363177686963,0.0010353646171231065,0.17023176739915558
1714155385839303200,3.47430322265625,-0.0867759957909584,0.02083325944840908,-0.03573912754654884,-0.10954169183969498,-0.6097928881645203,-0.7849543690681458,-0.014771722257137299,-0.008325517177581787,0.014171957969665527,0.9292734983949903,0.32790496884042786,0.0010761551915928324,0.17008247383951866
1714155385849293300,3.484293212890625,-0.0958552435040474,0.015514660626649857,-0.035381197929382324,-0.10936509817838669,-0.6091086268424988,-0.7855100631713867,-0.009943418204784393,-0.015693068504333496,0.016436636447906494,0.9294433914270714,0.32748109722058594,0.001054126600635523,0.1699710365509371
1714155385859282200,3.4942822265625,-0.08635766059160233,0.014264839701354504,-0.044907260686159134,-0.1091751679778099,-0.6083592772483826,-0.786116898059845,-0.0057235583662986755,-0.015175938606262207,0.01681464910507202,0.92963004672649,0.327017579764021,0.0010260763741501647,0.16984241636948
1714155385869272300,3.504272216796875,-0.0704231709241867,0.016094164922833443,-0.05046021565794945,-0.10891809314489365,-0.6077677607536316,-0.7866100072860718,-0.006957203149795532,-0.008443295955657959,0.014484822750091553,0.9297930763042466,0.32664035073303593,0.0010368757167535155,0.16967630169760026
1714155385879261400,3.514261474609375,-0.06533456593751907,0.007348876446485519,-0.04733233526349068,-0.10864852368831635,-0.6073588728904724,-0.7869629859924316,-0.008127041161060333,-0.004930675029754639,0.013968050479888916,0.9299238673610006,0.3263700050129024,0.0010631590436964659,0.1694791745690696
1714155385889250600,3.52425048828125,-0.06257180124521255,0.0016883271746337414,-0.05373963341116905,-0.10840732604265213,-0.6070845127105713,-0.7872079014778137,-0.005591139197349548,-0.0025957822799682617,0.017279982566833496,0.9300311023579143,0.32618229148042127,0.0010787566313263802,0.16925180070800744
1714155385899240400,3.534240478515625,-0.05820011347532272,-0.005345613695681095,-0.06311708688735962,-0.10817259550094604,-0.6068239808082581,-0.787441074848175,-0.0030029937624931335,-0.002963125705718994,0.020229220390319824,0.9301430301557675,0.3260035164845387,0.0010775405698988053,0.1689815039543845
1714155385909229600,3.5442294921875,-0.0472973994910717,-0.009458333253860474,-0.06497464329004288,-0.10800458490848541,-0.606610894203186,-0.7876282334327698,-0.004361189901828766,-0.00435107946395874,0.02029430866241455,0.9302470076177712,0.32586009286654916,0.001037922057229473,0.1686853287147086
1714155385919219500,3.554219482421875,-0.020579874515533447,-0.016640346497297287,-0.06857571005821228,-0.10788128525018692,-0.6065925359725952,-0.7876592874526978,-0.006849601864814758,-0.00024962425231933594,0.015717267990112305,0.930314841370697,0.32583642045010647,0.00098488578488584,0.1683571681057239
1714155385929208600,3.56420849609375,-0.024891000241041183,-0.015727147459983826,-0.07478779554367065,-0.1077020913362503,-0.6067244410514832,-0.7875822186470032,-0.007898546755313873,0.007237076759338379,0.01545703411102295,0.9303578757886636,0.32589562671483185,0.0009681978213946958,0.1680041482855422
1714155385939198500,3.574198486328125,-0.046338558197021484,-0.017902152612805367,-0.07465869933366776,-0.10747286677360535,-0.606761634349823,-0.7875849008560181,-0.010080896317958832,0.006984353065490723,0.013216674327850342,0.9304276570904645,0.3258935940221722,0.0009570119548847674,0.16762178189985444
1714155385949187600,3.5841875,-0.0764642283320427,-0.02213817648589611,-0.07146157324314117,-0.10729213058948517,-0.606508195400238,-0.7878047227859497,-0.01274881511926651,0.0036180615425109863,0.012948215007781982,0.9305531533780408,0.3257251080897954,0.0008942553331697783,0.1672521299010562
1714155385959177500,3.594177490234375,-0.0996386855840683,-0.027980618178844452,-0.0715598464012146,-0.10716470330953598,-0.6059982776641846,-0.7882143259048462,-0.013257704675197601,-0.004505932331085205,0.014700651168823242,0.9307293696337786,0.32541086015662996,0.0007771494809229399,0.16688339121507795
1714155385969166600,3.60416650390625,-0.1026374027132988,-0.02136159874498844,-0.07162082940340042,-0.10700894892215729,-0.6053803563117981,-0.7887101769447327,-0.013901747763156891,-0.009884655475616455,0.01795828342437744,0.9309283909252355,0.3250299654670849,0.0006639999112138233,0.16651575915333366
1714155385979156500,3.614156494140625,-0.08232702314853668,-0.021876653656363487,-0.071071557700634,-0.10681167989969254,-0.6048634052276611,-0.7891334295272827,-0.014297373592853546,-0.007761776447296143,0.02006000280380249,0.9311079663934605,0.3247044184840529,0.0005827796126728763,0.16614639585859317
1714155385989146400,3.624146484375,-0.05938948318362236,-0.0194300077855587,-0.06322082132101059,-0.1066497266292572,-0.604541540145874,-0.7894018888473511,-0.015924185514450073,-0.00040847063064575195,0.01323312520980835,0.9312416401076395,0.32449773694278006,0.0005124527925471512,0.1658010939218079
1714155385999135500,3.634135498046875,-0.035132989287376404,-0.00666734017431736,-0.06329785287380219,-0.10646190494298935,-0.6043583750724792,-0.7895675301551819,-0.01748529076576233,0.012607157230377197,0.00673067569732666,0.9313410621172129,0.32437015337937625,0.0004830102804075521,0.1654924158559352
1714155386009125400,3.64412548828125,-0.043850310146808624,-0.00041903206147253513,-0.06530401110649109,-0.10619081556797028,-0.6041843891143799,-0.7897371053695679,-0.017634309828281403,0.020169377326965332,0.007785320281982422,0.9314395043264531,0.3242393928856746,0.0005013716236365109,0.1651940087194239
1714155386019114500,3.654114501953125,-0.06875917315483093,-0.0144879799336195,-0.06103043630719185,-0.10598701238632202,-0.6038499474525452,-0.7900202870368958,-0.014237038791179657,0.015486180782318115,0.006801962852478027,0.9315668936622338,0.32402103922563597,0.000471197351886183,0.1649042815947125
1714155386029104400,3.6641044921875,-0.0878649577498436,-0.02242739498615265,-0.06180807948112488,-0.10590208321809769,-0.6033515930175781,-0.7904123067855835,-0.007882751524448395,0.0020636916160583496,0.004371166229248047,0.9317252183092664,0.32371857235421336,0.00035871560222054504,0.16460367749156168
1714155386039093500,3.674093505859375,-0.09790726006031036,-0.018487248569726944,-0.0655871033668518,-0.10582450032234192,-0.6028012633323669,-0.7908424735069275,-0.0012464746832847595,-0.005673527717590332,0.004999697208404541,0.9318951279945691,0.32338630139146485,0.00023447149525570622,0.16429500039484077
1714155386049083400,3.68408349609375,-0.09140781313180923,-0.019112292677164078,-0.06759779155254364,-0.10571205615997314,-0.6023170351982117,-0.7912263870239258,-0.000473901629447937,-0.008553385734558105,0.005093634128570557,0.9320571840160866,0.3230894612765602,0.0001260480344376473,0.16395927008494215
1714155386059072500,3.694072509765625,-0.0894445851445198,-0.020554393529891968,-0.06739332526922226,-0.10562548041343689,-0.6018772125244141,-0.7915725708007812,0.0006296932697296143,-0.007162153720855713,0.00377655029296875,0.932209920215807,0.3228215116669554,0.000007294381323684138,0.16361840065364944
1714155386069062400,3.7040625,-0.08182288706302643,-0.02111099474132061,-0.05992022901773453,-0.1055879071354866,-0.6013792753219604,-0.7919559478759766,0.0026368126273155212,-0.0016328692436218262,-0.0019435286521911621,0.9323666008918359,0.32252444795865665,-0.0001309206497962026,0.16331130421766304
1714155386079052500,3.714052490234375,-0.07765381783246994,-0.014806760475039482,-0.05431567505002022,-0.10557328164577484,-0.6007686853408813,-0.7924212217330933,0.004926249384880066,-0.0013432502746582031,-0.003461897373199463,0.9325368824118707,0.32216349597685545,-0.0002760679297350941,0.16305136003761958
1714155386089041400,3.72404150390625,-0.055760499089956284,-0.017718126997351646,-0.048769108951091766,-0.10557271540164948,-0.6002224683761597,-0.7928350567817688,0.004895173013210297,-0.004254579544067383,-0.0027276277542114258,0.9326893624710063,0.32184203622661284,-0.0004141045011273447,0.16281318764208652
1714155386099031600,3.734031494140625,-0.025791415944695473,-0.01478625275194645,-0.047163888812065125,-0.10556590557098389,-0.5999172925949097,-0.7930669188499451,0.005330860614776611,-0.0028201937675476074,-0.006676673889160156,0.9327913070264283,0.3216617460295074,-0.0005204700001357702,0.16258527426489916
1714155386109020400,3.7440205078125,0.0033219947945326567,-0.006745903752744198,-0.04526825249195099,-0.10545382648706436,-0.5999161601066589,-0.7930827140808105,0.004364296793937683,0.006578028202056885,-0.010460317134857178,0.9328347806313324,0.321649425349153,-0.0005401333553874312,0.1623601837886815
1714155386119010600,3.754010498046875,0.01624961756169796,-0.010966747999191284,-0.044560983777046204,-0.10525845736265182,-0.6001346707344055,-0.7929433584213257,0.0031771063804626465,0.013220489025115967,-0.011454224586486816,0.9328367867144594,0.32175780639913265,-0.0004946042454844393,0.16213389027877168
1714155386128999400,3.76399951171875,0.009050561115145683,-0.013518588617444038,-0.04584089666604996,-0.10508567094802856,-0.6004012227058411,-0.7927643656730652,0.004865892231464386,0.012052774429321289,-0.011114358901977539,0.9328303940800236,0.3218968743343268,-0.0004605842383812019,0.16189404843975078
1714155386138989600,3.773989501953125,0.0008573457598686218,-0.01755460910499096,-0.04833647981286049,-0.10493063926696777,-0.6005690693855286,-0.7926578521728516,0.008006758987903595,0.006376385688781738,-0.011754930019378662,0.9328462014166198,0.3219796223960584,-0.00045130188408215414,0.16163856673627597
1714155386148978400,3.783978515625,-0.017966940999031067,-0.009279368445277214,-0.04527571052312851,-0.10472780466079712,-0.6005564332008362,-0.7926942110061646,0.01099301129579544,0.0010232329368591309,-0.008468449115753174,0.9328992927526824,0.3219514003604033,-0.0004338019511738924,0.16138836038558213
1714155386158968600,3.793968505859375,-0.03774277865886688,-0.00727001391351223,-0.0421743243932724,-0.10447996854782104,-0.6003727316856384,-0.792866051197052,0.00961601734161377,-0.004989326000213623,-0.004253029823303223,0.9329838374559636,0.3218179726474829,-0.0004008267200966559,0.16116569785923293
1714155386168958500,3.80395849609375,-0.05120931938290596,-0.008778694085776806,-0.04438607767224312,-0.10425963997840881,-0.6000720858573914,-0.7931225895881653,0.005825147032737732,-0.009562373161315918,0.000459134578704834,0.9330894602140846,0.32161863145124103,-0.00039093579452971136,0.16095163124214656
1714155386178947300,3.813947265625,-0.05776330083608627,-0.007479604333639145,-0.05305945873260498,-0.10399261116981506,-0.5996700525283813,-0.7934616208076477,0.005283445119857788,-0.009079396724700928,0.0060776472091674805,0.9332226836896823,0.32135499656781763,-0.00037795550060103905,0.16070572543160275
1714155386188937500,3.8239375,-0.05852843075990677,-0.0042108409106731415,-0.060496870428323746,-0.10366547107696533,-0.5991837382316589,-0.7938717603683472,0.0052614882588386536,-0.00756680965423584,0.008150935173034668,0.9333799853808896,0.3210358344986877,-0.00035243695072223816,0.16043000129475826
1714155386198926300,3.83392626953125,-0.05909781530499458,-0.0012648520059883595,-0.06235216557979584,-0.10329980403184891,-0.5986446738243103,-0.7943259477615356,0.003598824143409729,-0.008121192455291748,0.003920793533325195,0.9335505064636163,0.32068195011263845,-0.0003150883386309703,0.1601454357221339
1714155386208916500,3.84391650390625,-0.05472570285201073,-0.0038768805097788572,-0.07003910839557648,-0.10289718210697174,-0.598162055015564,-0.794741690158844,0.0025248080492019653,-0.00993126630783081,-0.0021637678146362305,0.9337147485388323,0.3203577401563393,-0.00026091906628071364,0.1598368333870818
1714155386218905300,3.8539052734375,-0.04921615496277809,0.0016534398309886456,-0.07670793682336807,-0.10242181271314621,-0.5977420806884766,-0.7951189875602722,0.0008440017700195312,-0.009267866611480713,-0.008958101272583008,0.9338753836397935,0.3200632574693901,-0.00017647341800770128,0.15948753621461625
1714155386228895500,3.8638955078125,-0.051526714116334915,0.011115917935967445,-0.08249205350875854,-0.1018291562795639,-0.5974053144454956,-0.7954481244087219,-0.0021748021245002747,-0.00553053617477417,-0.012901365756988525,0.9340271629802386,0.3198060834548138,-0.00003079140180991917,0.15911459811489678
1714155386238884400,3.87388427734375,-0.057193122804164886,0.011209927499294281,-0.07774882763624191,-0.10119783133268356,-0.5971020460128784,-0.7957563996315002,-0.004820287227630615,-0.003178834915161133,-0.01018226146697998,0.9341718357420794,0.31956498704278424,0.00014117535530387866,0.15874954621844428
1714155386248874500,3.88387451171875,-0.07066471874713898,0.014392404817044735,-0.07583854347467422,-0.10060522705316544,-0.5967621803283691,-0.7960863709449768,-0.004482105374336243,-0.00609743595123291,-0.005534052848815918,0.9343193652718809,0.3193066363675193,0.0002948606489308718,0.15839980603612389
1714155386258864400,3.893864501953125,-0.0702873021364212,0.017301108688116074,-0.07295167446136475,-0.1000341847538948,-0.5963941216468811,-0.7964341044425964,-0.0008874982595443726,-0.005046427249908447,0.001146078109741211,0.9344682939420662,0.31903410419732464,0.0004415623500414311,0.15806999799315302
1714155386268853500,3.903853515625,-0.06445151567459106,0.01420891284942627,-0.06775851547718048,-0.09945637732744217,-0.5960439443588257,-0.7967684864997864,-0.0009617581963539124,-0.002665221691131592,0.0035862326622009277,0.9346116423844252,0.318771692144374,0.0005973372439628342,0.15775073327504666
1714155386278843400,3.913843505859375,-0.04986489936709404,0.013959640637040138,-0.06371629983186722,-0.09896624088287354,-0.5957583785057068,-0.7970430850982666,0.0023322850465774536,0.0028628110885620117,0.0031284093856811523,0.9347337885876958,0.3185559986398881,0.0007248956122364782,0.15746274914515498
1714155386288832500,3.92383251953125,-0.04058751091361046,0.014790547080338001,-0.052992016077041626,-0.09850816428661346,-0.5955184698104858,-0.7972790598869324,0.004437670111656189,0.0077651143074035645,0.0020062923431396484,0.9348392286731162,0.3183704388974764,0.0008528142234779604,0.15721097300863324
1714155386298822400,3.933822509765625,-0.030625637620687485,0.013691993430256844,-0.043097373098134995,-0.09814216941595078,-0.5953205823898315,-0.7974720001220703,0.007337071001529694,0.011381864547729492,0.0004749894142150879,0.9349244992877339,0.3182186159163492,0.000954767263000483,0.15701068131167928
1714155386308811500,3.9438115234375,-0.0129100251942873,0.015989501029253006,-0.04176659137010574,-0.0978335365653038,-0.5951793193817139,-0.7976153492927551,0.006158679723739624,0.014216065406799316,-0.004005074501037598,0.9349899371768687,0.3181056882917676,0.0010458790505443911,0.15684930184192436
1714155386318801400,3.953801513671875,0.015649767592549324,0.021817829459905624,-0.04172584414482117,-0.09749346971511841,-0.5952187776565552,-0.7976275086402893,0.0036518722772598267,0.0230904221534729,-0.008005917072296143,0.9350185061972927,0.31809566988593885,0.0011744934049097242,0.1566978519380421
1714155386328791300,3.963791259765625,0.04246992990374565,0.025660505518317223,-0.03776279464364052,-0.09712283313274384,-0.595504641532898,-0.7974593639373779,-0.000335104763507843,0.0308377742767334,-0.012553393840789795,0.9349976327870386,0.3182271281991461,0.001345842286192618,0.1565541461506855
1714155386338780400,3.973780517578125,0.046500999480485916,0.027234699577093124,-0.032663844525814056,-0.09672799706459045,-0.5959495306015015,-0.7971749305725098,-0.0023168548941612244,0.03393775224685669,-0.01674407720565796,0.9349434208103515,0.3184495703087313,0.0015499197197035922,0.15642377602618962
1714155386348770300,3.983770263671875,0.05175434798002243,0.011629374697804451,-0.02293424867093563,-0.09638991951942444,-0.59637051820755,-0.7969010472297668,-0.00080861896276474,0.03367209434509277,-0.012562394142150879,0.9348851732969027,0.3186635697437919,0.001736168678418049,0.15633439649336714
1714155386358759400,3.993759521484375,0.35831716656684875,0.0028369484934955835,0.15628430247306824,-0.09726881235837936,-0.5984843969345093,-0.795207679271698,0.0026032328605651855,0.029270410537719727,-0.010517358779907227,0.9343972168672764,0.3199901924869103,0.0015602979912099479,0.1565433711190253
1714155386368749300,4.003749267578125,0.005571354180574417,0.030135681852698326,0.13282878696918488,-0.09795726835727692,-0.5995534658432007,-0.7943173050880432,-0.002170950174331665,0.022023499011993408,0.000021159648895263672,0.9340347761518281,0.3206850393413424,0.0015625567023624318,0.1572824114230211
1714155386378738400,4.013738525390625,0.03654865548014641,0.040771014988422394,0.11561670899391174,-0.09829344600439072,-0.5994436144828796,-0.7943586707115173,-0.031360529363155365,0.01811426877975464,0.017427027225494385,0.9339378531664403,0.32065261661336775,0.001596967455472241,0.15792227262405523
1714155386388728300,4.023728271484375,0.057483501732349396,0.0302808228880167,0.005233739037066698,-0.09835276007652283,-0.5997329950332642,-0.7941329479217529,-0.030492514371871948,-0.023985445499420166,0.039555370807647705,0.9338206539320104,0.32082800632755787,0.001710285174941803,0.1582576281593785
1714155386398717400,4.033717529296875,0.038238272070884705,0.04212230443954468,-0.013748008757829666,-0.09794294089078903,-0.5998518466949463,-0.7940937876701355,0.01891762763261795,-0.0038011670112609863,0.01818448305130005,0.9338105923860699,0.3208572448916891,0.0019338589975410048,0.15825520883629618
1714155386408707300,4.043707275390625,0.037768226116895676,0.005178133491426706,0.044624753296375275,-0.09782376885414124,-0.5998644828796387,-0.7940989136695862,0.00407370924949646,0.043055951595306396,0.015366673469543457,0.9337865483160497,0.3208525306124557,0.0020483926424461653,0.1584049974747756
1714155386418696400,4.053696533203125,0.023294318467378616,-0.08045341819524765,0.03536088019609451,-0.09839065372943878,-0.5997751355171204,-0.7940964102745056,-0.012144066393375397,0.021192312240600586,0.02743387222290039,0.9337576846890394,0.32085595375243997,0.0018026881231313716,0.1585714659212169
1714155386428686300,4.063686279296875,0.07270128279924393,-0.1454758197069168,-0.003984926268458366,-0.09937823563814163,-0.599903404712677,-0.7938765287399292,0.0040565356612205505,-0.0058705806732177734,0.023185670375823975,0.9337180272510757,0.3210298216725966,0.0012644348962697026,0.158457998800002
1714155386438676500,4.073676513671875,0.11702485382556915,-0.13148224353790283,-0.021163780242204666,-0.10043064504861832,-0.6005216836929321,-0.7932763695716858,0.022061452269554138,-0.0049013495445251465,0.028093934059143066,0.9336041758679442,0.321498580577963,0.0006855297772924689,0.15818214901966143
1714155386448665300,4.083665283203125,0.09577229619026184,-0.07965739816427231,-0.06504335254430771,-0.10102579742670059,-0.6013638973236084,-0.7925625443458557,0.02419774979352951,0.028335273265838623,0.02470982074737549,0.9334724782921495,0.3220537622179921,0.00033981721455387214,0.1578311341236544
1714155386458655500,4.093655517578125,-0.03403661400079727,-0.017945295199751854,-0.13131240010261536,-0.10093602538108826,-0.6017410159111023,-0.7922876477241516,-0.0013284310698509216,0.045435965061187744,0.024343371391296387,0.9334859687133875,0.32226715313841375,0.0002455712120991351,0.15731435147299938
1714155386468644400,4.103644287109375,-0.26287487149238586,0.05002922937273979,-0.22979635000228882,-0.09981343895196915,-0.6008942723274231,-0.7930721640586853,-0.018259115517139435,0.018923938274383545,0.023357868194580078,0.9338303797981254,0.32165775287691406,0.0004686910773333327,0.156515421549987
1714155386478634500,4.113634521484375,-0.48041048645973206,0.10448767244815826,-0.24524900317192078,-0.09756484627723694,-0.5981752872467041,-0.7954039573669434,0.001220807433128357,-0.025192081928253174,0.021585047245025635,0.9346376043349862,0.31983907605463063,0.0009910719784019199,0.15541789905575687
1714155386488623400,4.123623291015625,-0.4121491312980652,-0.06591655313968658,0.07841107994318008,-0.09681275486946106,-0.5944704413414001,-0.7982682585716248,0.011073566973209381,-0.0825926661491394,0.02260303497314453,0.9354647631573845,0.3175926020426322,0.0008933971081719182,0.1550480659866817
1714155386498613500,4.133613525390625,-0.11851559579372406,-0.14225447177886963,0.14212454855442047,-0.09854575991630554,-0.5922000408172607,-0.7997424006462097,-0.015162795782089233,-0.1496518850326538,0.03735232353210449,0.9357821443548385,0.31643134229879166,-0.00006930009554238607,0.15550933979751574
1714155386508602400,4.143602294921875,0.033864885568618774,-0.0648219957947731,-0.04715536907315254,-0.0996728464961052,-0.5919876098632812,-0.7997599840164185,-0.005628108978271484,0.0029371976852416992,0.026032626628875732,0.9357788511731167,0.31641677014357455,-0.0006578102221937946,0.15555704772250634
1714155386518592500,4.153592529296875,-0.024859894067049026,-0.014636050909757614,-0.0868520438671112,-0.0994572713971138,-0.5921841263771057,-0.7996413111686707,-0.02123980224132538,0.11267662048339844,0.0002334117889404297,0.9358176402297068,0.31651050123067553,-0.0006706068665547852,0.1551325118391026
1714155386528582700,4.163582763671875,-0.08213889598846436,-0.0632411390542984,-0.034921202808618546,-0.09933435171842575,-0.5917924642562866,-0.7999465465545654,-0.04743999242782593,0.03484654426574707,0.002537548542022705,0.9359560015295565,0.31626910779666445,-0.0007606432997012431,0.1547898474230386
1714155386538571500,4.173571533203125,-0.05978672206401825,-0.1006537601351738,-0.00941950548440218,-0.09991750866174698,-0.5911895036697388,-0.8003196716308594,-0.0095796138048172,-0.02465534210205078,0.008159637451171875,0.9360918412246937,0.31597270455981813,-0.0011950138818865343,0.15457066569056918
1714155386548561700,4.183561767578125,-0.013261295855045319,-0.06328161805868149,-0.03160736709833145,-0.10050217807292938,-0.5909494757652283,-0.8004236817359924,0.011421315371990204,-0.03046482801437378,0.000954747200012207,0.9361555328289576,0.3158886030093295,-0.001594510050481026,0.1543530780337907
1714155386558550500,4.193550537109375,-0.013696455396711826,-0.030409686267375946,-0.0476808063685894,-0.10060757398605347,-0.5909624695777893,-0.8004008531570435,-0.004983298480510712,0.0027208328247070312,-0.010466396808624268,0.9361934027849032,0.3159059153913812,-0.0017378998983692134,0.15408631288687574
1714155386568540700,4.203540771484375,-0.02530517429113388,-0.03357485309243202,-0.0382835790514946,-0.1005750298500061,-0.5909320116043091,-0.8004274368286133,-0.021556369960308075,0.01930713653564453,-0.014147698879241943,0.9362422785002653,0.3158844791427265,-0.0018098470705366944,0.15383173958961033
1714155386578529500,4.213529541015625,-0.03582833707332611,-0.0411912277340889,-0.022051876410841942,-0.10070566833019257,-0.5908482670783997,-0.8004727959632874,-0.015047557651996613,0.006299257278442383,-0.004412949085235596,0.936286857117226,0.3158477321269059,-0.0019522615027718522,0.15363401880444394
1714155386588519700,4.223519775390625,-0.028925158083438873,-0.048754073679447174,-0.028751857578754425,-0.10092712193727493,-0.5906307697296143,-0.8006054162979126,0.006505683064460754,-0.0028293728828430176,0.00029724836349487305,0.9363543997722333,0.31574144032014945,-0.0021539003475191665,0.15343803581432489
1714155386598509600,4.233509521484375,-0.03072769194841385,-0.036963727325201035,-0.026393627747893333,-0.1011345162987709,-0.5903342962265015,-0.8007978796958923,0.019148990511894226,0.0054190754890441895,0.0011000633239746094,0.9364367463799081,0.31558757968453693,-0.002353314607231278,0.15324915387794924
1714155386608498700,4.243498779296875,-0.037447646260261536,-0.030659493058919907,-0.018871530890464783,-0.10131202638149261,-0.5900593400001526,-0.8009781241416931,0.017083458602428436,0.012437820434570312,0.004026889801025391,0.9365085810234698,0.3154434896713446,-0.0025202760854420893,0.15310429350369228
1714155386618488600,4.253488525390625,-0.04322223365306854,-0.029861077666282654,-0.009243404492735863,-0.10148005187511444,-0.5897680521011353,-0.8011713027954102,0.01648855209350586,0.010147571563720703,0.003121495246887207,0.9365771755023998,0.31528908303022174,-0.0026702176448235634,0.15299978536765488
1714155386628477700,4.263477783203125,-0.03062095306813717,-0.03469524532556534,-0.0020134546793997288,-0.10170392692089081,-0.5895125865936279,-0.8013309240341187,0.02040504664182663,0.004856765270233154,0.0006566047668457031,0.9366314985791943,0.31516107340389027,-0.0028346259383270796,0.15292802865653793
1714155386638467600,4.273467529296875,-0.011164375580847263,-0.032754600048065186,0.0010794075205922127,-0.10198488086462021,-0.5893517732620239,-0.8014134764671326,0.028818942606449127,0.00837332010269165,-0.002144753932952881,0.9366613376323788,0.3150939296213373,-0.003011616616240621,0.1528800469623474
1714155386648456400,4.28345654296875,-0.0009447615593671799,-0.029857613146305084,0.00719881895929575,-0.10230319201946259,-0.5892645120620728,-0.8014370799064636,0.031593918800354004,0.015595018863677979,-0.007629573345184326,0.9366709868746661,0.3150734286135393,-0.0031917229785340135,0.15285960590996872
1714155386658446600,4.293446533203125,-0.002300896681845188,-0.025877786800265312,0.014813528396189213,-0.10263869911432266,-0.5892109870910645,-0.8014335632324219,0.030311986804008484,0.021416127681732178,-0.01037973165512085,0.9366672201837767,0.3150744438444257,-0.0033648371952206563,0.1528769376242244
1714155386668435500,4.303435546875,-0.004296137485653162,-0.027330806478857994,0.02173934504389763,-0.10294627398252487,-0.5891700387001038,-0.8014242053031921,0.030177056789398193,0.02052062749862671,-0.011029958724975586,0.9366572537235606,0.315080240838962,-0.003512766374137886,0.1529225715959641
1714155386678425600,4.313425537109375,-0.014302431605756283,-0.027813104912638664,0.034942567348480225,-0.10319585353136063,-0.5890622735023499,-0.8014713525772095,0.029541634023189545,0.014995992183685303,-0.012508690357208252,0.9366577028289557,0.31504153828707954,-0.0036272022512075786,0.152997225488156
1714155386688415500,4.32341552734375,-0.009843234904110432,-0.02298532798886299,0.03661929443478584,-0.1034691110253334,-0.5888902544975281,-0.8015625476837158,0.030776187777519226,0.008583128452301025,-0.010418593883514404,0.9366635567867053,0.31496776220825107,-0.003747040398044476,0.1531104020717256
1714155386698404600,4.333404541015625,-0.00895128957927227,-0.008617573417723179,0.03952273726463318,-0.10368811339139938,-0.5887451767921448,-0.8016407489776611,0.026631176471710205,0.00445556640625,-0.005655884742736816,0.9366612252765243,0.3149046998190999,-0.003826508466376983,0.15325244446756772
1714155386708394500,4.34339453125,0.0009519418235868216,-0.005460662767291069,0.04029025882482529,-0.10381834954023361,-0.5886731147766113,-0.801676869392395,0.023480772972106934,0.005085408687591553,-0.009007275104522705,0.9366456986718835,0.31487577360329894,-0.0038490919278379894,0.1534063405977673
1714155386718383600,4.353383544921875,-0.001834044698625803,0.00009975163266062737,0.035443972796201706,-0.10381214320659637,-0.5886048674583435,-0.8017277717590332,0.019415728747844696,0.01134955883026123,-0.011992871761322021,0.936637314229877,0.314835877670888,-0.0038074606301769284,0.15353987317958698
1714155386728373500,4.36337353515625,-0.015462239272892475,0.011008858680725098,0.03667168691754341,-0.10371866822242737,-0.5883819460868835,-0.801903486251831,0.012638911604881287,0.01066887378692627,-0.01608961820602417,0.9366598851454305,0.3146972404596238,-0.003730305989499234,0.1536883734180619
1714155386738362600,4.373362548828125,-0.026518244296312332,0.021176008507609367,0.04322832450270653,-0.10358753800392151,-0.5880165696144104,-0.8021883964538574,0.00829634815454483,0.00581735372543335,-0.015606343746185303,0.9367055735476146,0.3144719177771812,-0.003634958353057067,0.15387346506531147
1714155386748352500,4.3833525390625,-0.03822656720876694,0.026324698701500893,0.0454866848886013,-0.10341957211494446,-0.5875534415245056,-0.8025493025779724,0.0060531944036483765,0.0011275410652160645,-0.013933181762695312,0.9367653706904726,0.3141862076297889,-0.003517612468739755,0.1540952740776164
1714155386758341600,4.393341552734375,-0.040994174778461456,0.03838615491986275,0.04062182456254959,-0.10319054871797562,-0.5870653986930847,-0.8029358386993408,0.002375677227973938,0.001402437686920166,-0.012737929821014404,0.9368330481231468,0.31388005296850263,-0.0033731588675408822,0.15431113703277793
1714155386768331500,4.40333154296875,-0.04025381803512573,0.04052334278821945,0.03536926954984665,-0.10286732017993927,-0.5866184234619141,-0.8033039569854736,-0.0018995776772499084,0.0022372007369995117,-0.013346374034881592,0.9368980024343581,0.31358875738525127,-0.0031807949324130606,0.15451312371070264
1714155386778321400,4.4133212890625,-0.040740057826042175,0.04476415738463402,0.039845310151576996,-0.10255809873342514,-0.5862357020378113,-0.803622841835022,-0.004024595022201538,0.001305222511291504,-0.013759970664978027,0.9369477114460968,0.3133363696453942,-0.002985482362831769,0.15472768218175345
1714155386788310500,4.423310546875,-0.03458043187856674,0.04730241745710373,0.034120578318834305,-0.10223504155874252,-0.585864245891571,-0.8039348125457764,-0.005019031465053558,-0.0029877424240112305,-0.010365664958953857,0.9369937661189681,0.3130892563677356,-0.002778720509804317,0.15495222599203934
1714155386798300400,4.433300537109375,-0.030197933316230774,0.04418758302927017,0.030513064935803413,-0.10192987322807312,-0.585479736328125,-0.8042536377906799,-0.0038746222853660583,-0.0038605928421020508,-0.006689906120300293,0.9370454121846263,0.3128361833464639,-0.002590044290048995,0.15515452360475485
1714155386808289500,4.44328955078125,-0.02632889337837696,0.056005895137786865,0.02417740412056446,-0.10159990936517715,-0.5851249098777771,-0.8045535087585449,-0.003701038658618927,-0.0034524202346801758,-0.004620015621185303,0.9370940226963351,0.3125980567237367,-0.002390273551188869,0.15534339725418667
1714155386818279400,4.453279541015625,-0.03266572579741478,0.053419433534145355,0.020963434129953384,-0.1012425497174263,-0.584786057472229,-0.804844856262207,-0.007873103022575378,-0.0041269659996032715,0.0009203553199768066,0.9371410853176465,0.31236651606234916,-0.002176201914500818,0.15552840550896727
1714155386828268500,4.4632685546875,-0.03742692619562149,0.04705554246902466,0.013538273982703686,-0.10088443756103516,-0.584445595741272,-0.8051370978355408,-0.010260626673698425,-0.006649494171142578,0.0015788078308105469,0.9371928843327468,0.31213388665559044,-0.0019711013568965673,0.15568613133167714
1714155386838258400,4.473258544921875,-0.044649045914411545,0.03865113854408264,0.0009200838394463062,-0.10060039162635803,-0.5840714573860168,-0.805444061756134,-0.010605722665786743,-0.00992274284362793,0.0013211965560913086,0.9372582697524656,0.3118888104774471,-0.0018270599053803686,0.15578554575657136
1714155386848247600,4.48324755859375,-0.04150305315852165,0.03593098744750023,-0.012804783880710602,-0.10028963536024094,-0.583675742149353,-0.8057695627212524,-0.010077230632305145,-0.010287940502166748,0.0006244182586669922,0.9373416587827903,0.31162851315690104,-0.0016976931658382651,0.15580570733908847
1714155386858237400,4.493237548828125,-0.03101813606917858,0.029116755351424217,-0.014016522094607353,-0.09998326748609543,-0.5833519101142883,-0.8060421347618103,-0.015693672001361847,-0.01007777452468872,0.003216266632080078,0.9374164855352506,0.31141042723011914,-0.001574639942154673,0.15579291939138473
1714155386868227600,4.5032275390625,-0.012266019359230995,0.02618754468858242,-0.01152912899851799,-0.09973292797803879,-0.5831746459007263,-0.8062013983726501,-0.02085733413696289,-0.011964023113250732,0.004184246063232422,0.937459808520715,0.31128307132568345,-0.0014637698368462175,0.15578823241208192
1714155386878216700,4.513216796875,0.003160820808261633,0.021944597363471985,-0.013953670859336853,-0.09949668496847153,-0.5831660628318787,-0.8062368035316467,-0.02184125781059265,-0.008112132549285889,0.003227829933166504,0.9374717320016308,0.3112551603435328,-0.0013473771747287196,0.15577320779264048
1714155386888206800,4.523206787109375,0.015411095693707466,0.019011124968528748,-0.013100925832986832,-0.09927596151828766,-0.5832861661911011,-0.8061771392822266,-0.02204672247171402,-0.0012171268463134766,0.003671705722808838,0.9374616231826118,0.3113035627692108,-0.001233236480549415,0.15573824157585794
1714155386898195700,4.53319580078125,0.01242489367723465,0.019365858286619186,-0.010699687525629997,-0.09913206100463867,-0.5834607481956482,-0.806068480014801,-0.02130560576915741,0.000880122184753418,0.003456294536590576,0.9374361810794307,0.3113911369959209,-0.0011491081922593814,0.15571674634542287
1714155386908185600,4.543185546875,0.003268146188929677,0.01745024509727955,-0.007410417310893536,-0.09903805702924728,-0.5835719108581543,-0.8059995770454407,-0.018363118171691895,-0.000992417335510254,0.006255984306335449,0.9374173810689047,0.3114466690597042,-0.0010889800782462114,0.1557191204217925
1714155386918174700,4.5531748046875,0.001127071212977171,0.010102584958076477,-0.009787887334823608,-0.09896394610404968,-0.583645224571228,-0.8059555888175964,-0.0188034325838089,-0.001605689525604248,0.009889364242553711,0.9374048185339992,0.31148215789129724,-0.001041898068678897,0.1557241510674403
1714155386928164600,4.56316455078125,0.003201141022145748,-0.000013699056580662727,-0.01034129224717617,-0.09893578290939331,-0.5837323069572449,-0.805895984172821,-0.015261039137840271,-0.0012897849082946777,0.01225590705871582,0.9373938224795653,0.3115300172415908,-0.0010287483523643056,0.15569462831831826
1714155386938154800,4.57315478515625,0.01090199127793312,-0.013519121333956718,-0.007595307193696499,-0.0990585908293724,-0.5838577747344971,-0.8057899475097656,-0.009080499410629272,0.0026198625564575195,0.010868191719055176,0.9373712980993921,0.31161486342042555,-0.0010916877650958695,0.15566003099272854
1714155386948143600,4.5831435546875,0.008319256827235222,-0.019983945414423943,-0.00485012074932456,-0.09931205958127975,-0.5840203762054443,-0.8056409358978271,-0.003639034926891327,0.0072991251945495605,0.0121077299118042,0.937336451361446,0.31173393855700443,-0.0012170100388318554,0.1556304122474157
1714155386958133800,4.5931337890625,0.008668131195008755,-0.022650301456451416,-0.002784905955195427,-0.09962337464094162,-0.5841478705406189,-0.8055101037025452,0.0029894113540649414,0.011760056018829346,0.013624787330627441,0.9373063283655577,0.31183818617643805,-0.0013751662952608962,0.15560228420302946
1714155386968122600,4.60312255859375,0.002444589976221323,-0.03061848133802414,0.0000889110378921032,-0.09999147802591324,-0.5841989517211914,-0.8054274320602417,0.00590573251247406,0.01416105031967163,0.013404786586761475,0.9372885364049104,0.31190355345861287,-0.001569298384263675,0.1555764681376766
1714155386978112800,4.61311279296875,0.005337795242667198,-0.03934672474861145,0.008880804292857647,-0.10045668482780457,-0.5842244625091553,-0.8053510189056396,0.008766569197177887,0.012660622596740723,0.012962162494659424,0.9372697616428507,0.31196346715337153,-0.001810810390655537,0.1555666925191685
1714155386988101600,4.6231015625,0.005695723928511143,-0.03740394860506058,0.014971454627811909,-0.10096225142478943,-0.5842731595039368,-0.8052524924278259,0.01223234087228775,0.013807952404022217,0.012848377227783203,0.9372411679460695,0.31204086290790467,-0.0020630178690020425,0.15558084865566835
1714155386998091800,4.633091796875,0.010672958567738533,-0.041655417531728745,0.01727036014199257,-0.10149865597486496,-0.5843484997749329,-0.8051303625106812,0.012982368469238281,0.015195608139038086,0.007141530513763428,0.93720330294226,0.31213686034799976,-0.0023226578147185744,0.15561291584370035
1714155387008080600,4.64308056640625,0.012014659121632576,-0.04044421389698982,0.022963400930166245,-0.10203737765550613,-0.5844689607620239,-0.8049748539924622,0.011674776673316956,0.016201019287109375,0.0032781362533569336,0.9371563430865131,0.31225937566478745,-0.0025788461771699116,0.1556459486072282
1714155387018070800,4.65307080078125,-0.002046564593911171,-0.04156753420829773,0.024992862716317177,-0.10255743563175201,-0.5845165252685547,-0.8048742413520813,0.010180681943893433,0.018903613090515137,0.004382967948913574,0.9371196414973939,0.3123378177298254,-0.002823573839688221,0.15570542460348777
1714155387028060700,4.663060791015625,-0.017660943791270256,-0.03969932720065117,0.028452042490243912,-0.10305242985486984,-0.5844231247901917,-0.8048787713050842,0.011652231216430664,0.0174369215965271,0.005715012550354004,0.937109164835809,0.31233191038780145,-0.0030655677161294474,0.1557748067409316
1714155387038049800,4.6730498046875,-0.041723936796188354,-0.03748757019639015,0.02895098552107811,-0.10350847244262695,-0.584158182144165,-0.805012583732605,0.012916989624500275,0.010183453559875488,0.003544747829437256,0.9371333871502514,0.31222233019244183,-0.003303820392617311,0.15584444799449246
1714155387048039700,4.683039794921875,-0.06112853065133095,-0.03233834728598595,0.033251989632844925,-0.10391858965158463,-0.5836883187294006,-0.8053004741668701,0.011343471705913544,0.003945827484130859,0.003176569938659668,0.9371948403856507,0.31198924430798086,-0.0035306251390312023,0.15593617979000063
1714155387058028800,4.69302880859375,-0.06622283160686493,-0.029250681400299072,0.029130417853593826,-0.10429517179727554,-0.5831289291381836,-0.8056569695472717,0.008866660296916962,-0.0007029175758361816,0.004082381725311279,0.9372747295472952,0.3117009028510449,-0.0037487779297924653,0.15602762814021634
1714155387068018700,4.703018798828125,-0.06347525119781494,-0.028953470289707184,0.02102934569120407,-0.10458942502737045,-0.582573652267456,-0.8060204982757568,0.005727678537368774,-0.0032570958137512207,0.0028284192085266113,0.9373612305738315,0.3114069385873392,-0.003933285119027054,0.15609094376737648
1714155387078007800,4.7130078125,-0.04437548667192459,-0.029936976730823517,0.019750896841287613,-0.1048639565706253,-0.5820661187171936,-0.8063514232635498,0.003942273557186127,-0.00007200241088867188,-0.00109785795211792,0.9374424437074046,0.31113888150768054,-0.004110102650954456,0.15613283306181003
1714155387087997700,4.722997802734375,-0.024116819724440575,-0.027712970972061157,0.00982849020510912,-0.1050967201590538,-0.5817173719406128,-0.8065727949142456,0.002740703523159027,0.002630949020385742,-0.004096090793609619,0.9374976498568507,0.31095898152343804,-0.004256271044200323,0.15615601212488975
1714155387097986800,4.73298681640625,-0.005776641424745321,-0.01738283596932888,0.0050762128084897995,-0.10523444414138794,-0.5815168619155884,-0.8066993951797485,-0.000936262309551239,0.006580829620361328,-0.007173776626586914,0.9375323593447723,0.3108558938762154,-0.004348640896811111,0.15615026341721872
1714155387107976700,4.742976806640625,0.0015965865459293127,-0.012912453152239323,0.0021970693487674,-0.10528771579265594,-0.5814681053161621,-0.8067275881767273,-0.005597949028015137,0.006455838680267334,-0.00906825065612793,0.9375442118741653,0.3108326720977449,-0.00438949012576388,0.15612424894260235
1714155387117966600,4.752966552734375,0.00677249301224947,-0.011248243972659111,0.0010013100691139698,-0.10529973357915878,-0.5814895629882812,-0.8067105412483215,-0.0065625011920928955,0.005332887172698975,-0.011709809303283691,0.9375434202842058,0.3108461844948686,-0.0044010049329220105,0.1561020698555807
1714155387127955700,4.762955810546875,0.002659240970388055,-0.0029527635779231787,-0.0015942066675052047,-0.1052773967385292,-0.5815356373786926,-0.8066802024841309,-0.009056761860847473,0.0035936832427978516,-0.012609899044036865,0.937539377484454,0.3108706902860555,-0.004393315665036042,0.15607708981395252
1714155387137945600,4.772945556640625,-0.0073555223643779755,-0.0004914700984954834,-0.0002955162199214101,-0.10520631819963455,-0.5815650820732117,-0.8066682815551758,-0.01320192962884903,0.0028144121170043945,-0.010546624660491943,0.9375395399742081,0.31088077606997655,-0.004360456004596704,0.15605680437950017
1714155387147934700,4.782934814453125,-0.014143654145300388,-0.004336542449891567,0.001653651474043727,-0.10518883913755417,-0.5815184712409973,-0.8067041039466858,-0.01338726282119751,0.0009214878082275391,-0.008054137229919434,0.9375499634427769,0.31085197305766865,-0.004357629516585715,0.15605152739175596
1714155387157924600,4.792924560546875,-0.021084915846586227,-0.0016528747510164976,-0.001068365527316928,-0.10519441962242126,-0.5813838839530945,-0.8068004846572876,-0.012557700276374817,0.000664830207824707,-0.006965935230255127,0.9375771140044773,0.3107742259107522,-0.00437610372779941,0.15604342335082688
1714155387167913700,4.802913818359375,-0.03115379810333252,0.0027717011980712414,-0.0051057180389761925,-0.10515668243169785,-0.5811347961425781,-0.8069847822189331,-0.010398179292678833,0.0006446242332458496,-0.005805075168609619,0.9376292104425641,0.3106257649054294,-0.004386459012943118,0.1560252672807427
1714155387177903600,4.812903564453125,-0.03182891011238098,0.0016971156001091003,-0.0037528318352997303,-0.10510644316673279,-0.5808099508285522,-0.8072251677513123,-0.010738343000411987,-0.0001227259635925293,-0.004115104675292969,0.9376963357590845,0.31043209615421846,-0.004397602277069838,0.15600707815262543
1714155387187893500,4.8228935546875,-0.017840120941400528,-0.005368783138692379,-0.0017780979396775365,-0.10513831675052643,-0.5805324912071228,-0.8074206113815308,-0.007761523127555847,-0.004138588905334473,-0.0017529129981994629,0.9377504331482218,0.31027399336489264,-0.00444449682100293,0.1559954405768712
1714155387197882600,4.832882568359375,0.000746346078813076,-0.0028188067954033613,0.003473122837021947,-0.1052182987332344,-0.5803647637367249,-0.8075307607650757,-0.001455947756767273,-0.006030619144439697,-0.004236757755279541,0.9377788122899746,0.3101844122193454,-0.0044999623716619665,0.15600132968755476
1714155387207872500,4.84287255859375,0.023738745599985123,-0.004353320226073265,-0.0058271680027246475,-0.10530149191617966,-0.5803956389427185,-0.8074977397918701,-0.0009912848472595215,0.0013245344161987305,-0.006375551223754883,0.9377714454179636,0.3102104222052421,-0.0045428197627330105,0.1559928828021693
1714155387217861600,4.852861572265625,0.03424305468797684,0.0007783250184729695,-0.010257336311042309,-0.10535223037004471,-0.5805889964103699,-0.8073521256446838,-0.00237487256526947,0.008719980716705322,-0.010152697563171387,0.937738057656943,0.3103274700260471,-0.0045612826488560625,0.1559604923401296
1714155387227851500,4.8628515625,0.023908495903015137,0.0037594675086438656,-0.005061309318989515,-0.1053631529211998,-0.5808092355728149,-0.8071922063827515,-0.00584295392036438,0.01251077651977539,-0.00910717248916626,0.9376983178884585,0.31045640083593784,-0.004551873898946483,0.15594231819515336
1714155387237840600,4.872840576171875,0.005606348626315594,-0.00624682754278183,-0.005117169581353664,-0.10544378310441971,-0.5809166431427002,-0.8071043491363525,-0.00330565869808197,0.0041342973709106445,-0.00419008731842041,0.937675542026675,0.31052663818071613,-0.004584599528230629,0.1559383947708474
1714155387247830500,4.88283056640625,-0.008062591776251793,-0.005138952285051346,-0.0056229038164019585,-0.10551910102367401,-0.5808894038200378,-0.8071141839027405,0.0014846250414848328,-0.005628049373626709,-0.003264784812927246,0.9376820641411703,0.3105180251230708,-0.004633907219902516,0.1559150001395288
1714155387257820700,4.892820556640625,-0.019831260666251183,0.0037480159662663937,-0.012571423314511776,-0.10553089529275894,-0.5807543992996216,-0.8072097301483154,0.002884969115257263,-0.006159782409667969,-0.00008696317672729492,0.9377136330904989,0.31044058798665675,-0.004665051391775003,0.1558783513206985
1714155387267809500,4.9028095703125,-0.017248794436454773,0.005324341356754303,-0.012495789676904678,-0.10545210540294647,-0.5806152820587158,-0.8073201179504395,0.00009010732173919678,-0.0064972639083862305,0.0017171502113342285,0.9377506855969736,0.3103518843089234,-0.004652829543438115,0.15583233390751672
1714155387277799700,4.912799560546875,-0.016790464520454407,0.009502042084932327,-0.010721459053456783,-0.10532698035240173,-0.5805016160011292,-0.807418167591095,-0.0015913993120193481,-0.005924224853515625,0.0021814703941345215,0.9377832852276605,0.31027351678125625,-0.004611906154331937,0.15579325767306929
1714155387287788500,4.92278857421875,-0.01145775057375431,0.012091433629393578,-0.010661005042493343,-0.10519609600305557,-0.5803617238998413,-0.8075357675552368,0.001207403838634491,-0.006231963634490967,0.002024412155151367,0.9378206137053485,0.3101793572567845,-0.004569442844374057,0.1557574016952503
1714155387297778700,4.93277880859375,-0.012370042502880096,0.019344020634889603,-0.01634279265999794,-0.10499701648950577,-0.580193281173706,-0.8076826930046082,0.0021527260541915894,-0.005378067493438721,-0.0012466907501220703,0.9378664892422183,0.3100619738765306,-0.004495887543157504,0.15571714881046855
1714155387307767600,4.942767578125,-0.01233728602528572,0.01889660954475403,-0.012572023086249828,-0.10479982197284698,-0.5800083875656128,-0.8078411221504211,0.0028710514307022095,-0.005196750164031982,-0.001515507698059082,0.9379125387308825,0.30993533754848757,-0.004419189410559257,0.15569407607834723
1714155387317757700,4.9527578125,0.7711184620857239,-0.34833598136901855,0.1425172984600067,-0.10553974658250809,-0.5814400911331177,-0.8067148327827454,0.004587545990943909,-0.005428314208984375,-0.0028096437454223633,0.9376102190304216,0.31083896720551313,-0.004661031008387245,0.15570648988901953
1714155387327747800,4.962747802734375,0.04705318063497543,0.1471555083990097,0.30376556515693665,-0.10628486424684525,-0.5859131813049316,-0.8033736944198608,0.004417136311531067,-0.00203859806060791,-0.006608545780181885,0.9364543148519991,0.3135226380117854,-0.004088226551007339,0.15729005586888659
1714155387337736700,4.97273681640625,0.17635168135166168,0.006620767526328564,0.12243659794330597,-0.10716994106769562,-0.5856633186340332,-0.8034383058547974,-0.03662894666194916,0.04965245723724365,0.05604761838912964,0.9363098575411853,0.3134689738544302,-0.004249212817909338,0.15824975762708182
1714155387347726800,4.982726806640625,0.0404399111866951,-0.17547233402729034,0.006328098475933075,-0.1084558367729187,-0.5868985652923584,-0.8023636937141418,-0.11897647380828857,-0.0012058019638061523,0.04955613613128662,0.9359887904432349,0.3143180247251431,-0.00472611475448882,0.1584520223824563
1714155387357715700,4.9927158203125,-0.060697730630636215,-0.10208441317081451,-0.1600569486618042,-0.10908158868551254,-0.5866550207138062,-0.8024569153785706,0.10459545999765396,-0.07362335920333862,0.05067175626754761,0.9361137525597317,0.3142351637706222,-0.0052727724587642525,0.15785909774883317
1714155387367705900,5.002705810546875,-0.10394134372472763,-0.13089048862457275,-0.21281762421131134,-0.10886029154062271,-0.5862550139427185,-0.8027793169021606,0.09990333020687103,-0.005099475383758545,0.02789229154586792,0.9363789560553231,0.3139737195421673,-0.005554357340627361,0.15679389327768398
1714155387377694700,5.01269482421875,-0.1736132651567459,-0.16332140564918518,-0.22837676107883453,-0.10879363119602203,-0.5853487849235535,-0.8034493327140808,0.015287712216377258,-0.014092862606048584,0.021680593490600586,0.9367700517292423,0.3134309137451164,-0.006033373798816527,0.15552049414738656
1714155387387684900,5.022684814453125,-0.26741859316825867,-0.10972155630588531,-0.2884094715118408,-0.10843942314386368,-0.5838726162910461,-0.8045704960823059,0.0013531893491744995,-0.011098146438598633,-0.009653687477111816,0.9373012340324319,0.3125268357656976,-0.006459181707990005,0.1541164028151442
1714155387397673700,5.032673828125,-0.3254442811012268,-0.0363815613090992,-0.31495165824890137,-0.1072685495018959,-0.5817054510116577,-0.8062953948974609,0.012831851840019226,-0.017720937728881836,-0.011102557182312012,0.9380214047003778,0.31114131558948693,-0.006585670563570909,0.15252482385233007
1714155387407663900,5.042663818359375,0.025996042415499687,0.18195050954818726,0.03474748879671097,-0.10550161451101303,-0.5805975198745728,-0.8073264360427856,-0.013028711080551147,-0.027648448944091797,-0.01770097017288208,0.938372334344742,0.31032503173637427,-0.005929962062186966,0.15205442335852218
