time,seconds_elapsed,rotationRateX,rotationRateY,rotationRateZ,gravityX,gravityY,gravityZ,accelerationX,accelerationY,accelerationZ,quaternionW,quaternionX,quaternionY,quaternionZ
1714155402267190500,0.0471904296875,-0.005490298382937908,0.009133193641901016,-0.03852326050400734,-0.047334812581539154,-0.444162517786026,-0.8946949243545532,0.0033132247626781464,-0.010869741439819336,-0.017521262168884277,0.9733176774360753,0.2281693442287215,-0.02431622033534827,0
1714155402277179400,0.057179443359375,-0.008591443300247192,0.017929881811141968,-0.037615854293107986,-0.04696916416287422,-0.4443075358867645,-0.8946422338485718,0.0012538470327854156,-0.01341027021408081,-0.017558753490447998,0.9733041589365193,0.22824243740405675,-0.024171941391024427,-0.0001843185454918489
1714155402287169500,0.06716943359375,-0.005900584626942873,0.030057916417717934,-0.04274297505617142,-0.04661232605576515,-0.44435614347457886,-0.8946367502212524,0.0014158114790916443,-0.012110412120819092,-0.016969144344329834,0.9733026884297277,0.2282635878580629,-0.024028546953638277,-0.00035435265219857515
1714155402297159400,0.077159423828125,0.005987499840557575,0.03663912042975426,-0.037463389337062836,-0.04619990289211273,-0.44440510869026184,-0.8946338295936584,0.0022851191461086273,-0.008323073387145996,-0.014774799346923828,0.9733019283730562,0.22828535048417234,-0.023851365013547315,-0.0005021297987814893
1714155402307148500,0.0871484375,0.013099471107125282,0.03568064793944359,-0.03819975629448891,-0.04576097056269646,-0.4445241093635559,-0.8945972919464111,0.004623286426067352,-0.004236787557601929,-0.015238583087921143,0.9732924938750747,0.2283459003434034,-0.023654145910714616,-0.0006215055560061522
1714155402317138400,0.097138427734375,0.019949227571487427,0.04061069339513779,-0.04341748729348183,-0.04523296281695366,-0.444714218378067,-0.8945295810699463,0.009100161492824554,0.0010192394256591797,-0.013292074203491211,0.9732749084178164,0.22844420266429505,-0.02341884410826057,-0.000772582739502925
1714155402327131100,0.107131103515625,0.01346869207918644,0.04762066528201103,-0.04050372168421745,-0.04460902512073517,-0.44487497210502625,-0.8944810032844543,0.009635884314775467,0.002965211868286133,-0.009648025035858154,0.9732627852877868,0.2285482349604397,-0.022917255208628806,1.3877787807814457e-17
1714155402337121000,0.11712109375,0.004826574586331844,0.047689907252788544,-0.03281684219837189,-0.043988145887851715,-0.44496268033981323,-0.8944681286811829,0.008480947464704514,-0.00282171368598938,-0.005418896675109863,0.9732595476036354,0.22859134577711596,-0.022625705738406904,-0.00011641546078874909
1714155402347110100,0.127110107421875,-0.006457238923758268,0.04455163702368736,-0.029188551008701324,-0.04343227297067642,-0.44497978687286377,-0.8944867849349976,0.01015285775065422,-0.007046550512313843,0.0005658864974975586,0.9732642527323404,0.22859671657484026,-0.02236394928839473,-0.00021827148329768564
1714155402357100000,0.13710009765625,-0.009132437407970428,0.04138647019863129,-0.03296990692615509,-0.04292016848921776,-0.44494059681892395,-0.8945310115814209,0.012234743684530258,-0.005987107753753662,0.0032804012298583984,0.973275590375122,0.22857179296262586,-0.022123209908660714,-0.00031454500107615246
1714155402367089200,0.147089111328125,-0.003436468541622162,0.05067611113190651,-0.0302665326744318,-0.042355772107839584,-0.4449259340763092,-0.894565224647522,0.012311220169067383,-0.004140228033065796,0.006763100624084473,0.9732843600717515,0.22855997381683066,-0.021857132015374613,-0.0004170408322835689
1714155402377079000,0.1570791015625,0.006639015860855579,0.04419104754924774,-0.01631656102836132,-0.041839271783828735,-0.44495126605033875,-0.894576907157898,0.014236126095056534,-0.003763914108276367,0.007125735282897949,0.9732873970744105,0.22857103019280942,-0.02160601526323643,-0.00047786353477002885
1714155402387069000,0.16706884765625,0.024151165038347244,0.030723707750439644,-0.007843446917831898,-0.04144662618637085,-0.4450593590736389,-0.8945413827896118,0.019626561552286148,-0.0033048391342163086,0.005610167980194092,0.9732781701252645,0.22862853568423588,-0.021407720146925904,-0.0004914207350301958
1714155402397058000,0.17705810546875,0.03686791658401489,0.026196865364909172,-0.00893654115498066,-0.04111091420054436,-0.4452475905418396,-0.8944632411003113,0.023151326924562454,0.003185272216796875,0.0033957362174987793,0.9732580726542044,0.2287297884700842,-0.021238497653078513,-0.0005031374306055103
1714155402407048000,0.1870478515625,0.041160132735967636,0.0315394327044487,0.0002329882699996233,-0.04078060761094093,-0.44550636410713196,-0.8943495154380798,0.018136564642190933,0.008235305547714233,0.001725614070892334,0.9732288549892596,0.22887002787207486,-0.021065751468403587,-0.00048714824680454183
1714155404984352000,2.76435205078125,-0.0810181275010109,-0.10935404151678085,-0.1362176537513733,-0.09440727531909943,-0.6056864857673645,-0.7900829911231995,0.004975512623786926,-0.034007728099823,-0.03744691610336304,0.9234432575685959,0.32329922358335766,0.02088325898239394,0.2056551201597484
1714155404994342100,2.774342041015625,-0.07345358282327652,-0.07046283781528473,-0.1165679320693016,-0.09435112774372101,-0.6051943302154541,-0.7904667258262634,0.0019133836030960083,-0.04048126935958862,-0.03810083866119385,0.9237067726935575,0.32302090937128874,0.02059452059708566,0.2049367723298715
1714155405004332000,2.78433203125,-0.05565753951668739,-0.045752957463264465,-0.10925568640232086,-0.09413392841815948,-0.6047857403755188,-0.7908052802085876,0.0024896562099456787,-0.033062100410461426,-0.038555681705474854,0.9239307286610021,0.32276845909338664,0.020442298409739493,0.2043391505750229
1714155405014321200,2.794321044921875,-0.03802880272269249,-0.02015651762485504,-0.12217342108488083,-0.09368343651294708,-0.6045286059379578,-0.7910553812980652,0.0048009902238845825,-0.015725910663604736,-0.034002602100372314,0.9241269572642196,0.3225750710913395,0.020435936022673528,0.20375758081595202
1714155405024311000,2.80431103515625,-0.048106469213962555,-0.006433781236410141,-0.13117650151252747,-0.09301961213350296,-0.6043213605880737,-0.7912920713424683,0.002107754349708557,-0.0062896013259887695,-0.035398662090301514,0.9243243608126771,0.3223851591418952,0.020537434383982325,0.20315159024460966
1714155405034300200,2.814300048828125,-0.06686817109584808,0.0054537709802389145,-0.1376848667860031,-0.09218154847621918,-0.6039695143699646,-0.7916586399078369,0.0012239068746566772,-0.006778717041015625,-0.032331228256225586,0.9245608509682312,0.3220901978409507,0.020702494093368738,0.20252553608155408
1714155405044290000,2.8242900390625,-0.06973506510257721,0.02719768136739731,-0.13357986509799957,-0.09119657427072525,-0.6035478115081787,-0.7920941710472107,0.003321215510368347,-0.012129008769989014,-0.016163885593414307,0.9248104502081284,0.321736422767571,0.020942240725543442,0.2019227117777858
1714155405054279200,2.834279052734375,-0.07162217795848846,0.030673373490571976,-0.1274988055229187,-0.0901365876197815,-0.6030999422073364,-0.7925565838813782,0.003909178078174591,-0.020038485527038574,-0.008499324321746826,0.9250565893458069,0.32135780047079615,0.02123392089979126,0.2013670541085794
1714155405064269000,2.84426904296875,-0.06856886297464371,0.02577022835612297,-0.11978442966938019,-0.08916832506656647,-0.6026646494865417,-0.7929970622062683,0.004665158689022064,-0.013515770435333252,-0.00888282060623169,0.9252888831817684,0.32099770009774936,0.02149266189457103,0.2008459368364624
1714155405074258200,2.854258056640625,-0.043836090713739395,0.03606307879090309,-0.11459579318761826,-0.08821949362754822,-0.6023704409599304,-0.7933266162872314,0.006844371557235718,-0.0014960765838623047,-0.0025260448455810547,0.9254843362685123,0.32072218805245417,0.021770742188838763,0.2003547943731271
1714155405084248000,2.864248046875,-0.030538393184542656,0.039987511932849884,-0.11460351943969727,-0.08722063153982162,-0.6021981239318848,-0.7935678958892822,0.007325619459152222,0.0011849403381347656,0.007953882217407227,0.9256493496827632,0.32051147492228066,0.022100884654424016,0.19989295159109904
1714155405094238200,2.87423828125,-0.0190053079277277,0.022017834708094597,-0.10367869585752487,-0.08632072061300278,-0.6020852327346802,-0.7937518954277039,0.009889453649520874,-0.003200352191925049,0.007298648357391357,0.9257994120504607,0.32034804234891473,0.02238701346543425,0.19942760458816455
1714155405104227000,2.88422705078125,-0.02080720290541649,0.010579290799796581,-0.07347206026315689,-0.08566083759069443,-0.6019415855407715,-0.7939322590827942,0.012845911085605621,-0.01031726598739624,0.008165717124938965,0.9259301131158453,0.32019403348746545,0.02257514790227033,0.1990462681147293
1714155405114217200,2.89421728515625,-0.03334217146039009,0.012117532081902027,-0.04661647602915764,-0.08525411039590836,-0.6017201542854309,-0.7941439151763916,0.014102384448051453,-0.017801940441131592,0.0184175968170166,0.9260420464908568,0.3200222504855983,0.022667052364637105,0.1987914817814091
1714155405124206000,2.9042060546875,-0.033662017434835434,0.010058376006782055,-0.03434250131249428,-0.08492942899465561,-0.6015013456344604,-0.794344425201416,0.011885613203048706,-0.021011412143707275,0.025408267974853516,0.9261304955047318,0.3198596802233419,0.02275006338642877,0.1986316092448876
1714155405134196200,2.9141962890625,-0.036342646926641464,-0.011212557554244995,-0.03728242963552475,-0.08472398668527603,-0.6013503670692444,-0.7944806814193726,0.010749384760856628,-0.01797330379486084,0.02319467067718506,0.9262030355555763,0.31975116091251815,0.02277833113790704,0.19846481324802862
1714155405144185000,2.92418505859375,-0.04065483808517456,-0.025412265211343765,-0.038330115377902985,-0.08463745564222336,-0.6011717915534973,-0.7946251034736633,0.013012699782848358,-0.010553061962127686,0.020577192306518555,0.9262853840453887,0.3196416952113143,0.022729725445905163,0.19826242884478582
1714155405154175200,2.93417529296875,-0.053587254136800766,-0.02405538596212864,-0.031661827117204666,-0.08457130193710327,-0.6008570790290833,-0.7948700785636902,0.013190694153308868,-0.010593056678771973,0.02764284610748291,0.926395946186203,0.31945563495721135,0.022651087073069873,0.1980541838074954
1714155405164164000,2.9441640625,-0.05244102701544762,-0.027458639815449715,-0.01609165593981743,-0.08454864472150803,-0.6005281209945679,-0.7951210737228394,0.008788764476776123,-0.017651140689849854,0.032669901847839355,0.9264983381059604,0.3192652891485368,0.022564312793638325,0.19789223045819587
1714155405174154200,2.954154296875,-0.03066612035036087,-0.040631964802742004,-0.0034200032241642475,-0.08466555178165436,-0.6003445386886597,-0.7952471971511841,0.004953637719154358,-0.020306646823883057,0.024724125862121582,0.9265576980060574,0.31917526470191926,0.022439689177236124,0.19777359970742203
1714155405184144400,2.964144287109375,-0.0026480662636458874,-0.04487890750169754,0.00011427770368754864,-0.08484260737895966,-0.6004300117492676,-0.7951638102531433,0.0017737746238708496,-0.009555280208587646,0.014325857162475586,0.9265580766704372,0.31924876261453217,0.022322910333023815,0.19766647471291854
1714155405194133200,2.97413330078125,0.018039794638752937,-0.04078536480665207,0.0018626430537551641,-0.08501103520393372,-0.6008756160736084,-0.7948091626167297,0.00037053972482681274,0.0052487850189208984,0.014123737812042236,0.9264866530770407,0.3195311402097703,0.022254690314075534,0.19755254946329215
1714155405204123100,2.984123046875,0.03490053489804268,-0.04135048761963844,0.007721331436187029,-0.08522368222475052,-0.6015374064445496,-0.7942856550216675,-0.0010342448949813843,0.011342763900756836,0.00943458080291748,0.9263660459808536,0.31994445030887275,0.022197532162767455,0.1974557794285476
1714155405214112300,2.9941123046875,0.03885585814714432,-0.04639797657728195,0.013340000994503498,-0.08552168309688568,-0.6022164225578308,-0.7937389016151428,-0.0007667616009712219,0.011457204818725586,0.007117807865142822,0.9262334385387837,0.32037759226865525,0.022107850232922964,0.19738543918645085
1714155405224102100,3.00410205078125,0.02178313583135605,-0.04144715890288353,0.01843729242682457,-0.08579807728528976,-0.6027166843414307,-0.7933292388916016,0.00028783082962036133,0.009302377700805664,0.008066177368164062,0.9261325462202183,0.3207034727361263,0.022014898801809527,0.19734040208356957
1714155405234091300,3.01409130859375,-0.004913510289043188,-0.03301772102713585,0.03157413378357887,-0.08609475940465927,-0.603064239025116,-0.7930328845977783,0.0017746984958648682,0.0016238093376159668,0.01225590705871582,0.9260499954330839,0.32094148741791895,0.021911364397118736,0.197351861749516
1714155405244081200,3.0240810546875,-0.02955946885049343,-0.02676568366587162,0.03708234801888466,-0.08645990490913391,-0.6033153533935547,-0.792802095413208,-0.002575114369392395,-0.005769670009613037,0.012574493885040283,0.9259712198329934,0.32112994650015514,0.021782992202347508,0.19742903929074057
1714155405254070300,3.0340703125,-0.052372585982084274,-0.021742429584264755,0.03613579645752907,-0.08680792897939682,-0.6033095717430115,-0.7927685379981995,-0.00814751535654068,-0.006324827671051025,0.006803572177886963,0.925938760447876,0.321165656658406,0.021641592522613932,0.19753903225697642
1714155405264060200,3.04406005859375,-0.06070028990507126,-0.015044579282402992,0.03321590647101402,-0.08713661134243011,-0.6029950976371765,-0.7929717302322388,-0.012121804058551788,-0.003587484359741211,0.0025664567947387695,0.9259677409597166,0.32101866103978544,0.02147427416581337,0.1976607542748144
1714155405274050300,3.05405029296875,-0.06744788587093353,-0.00678744912147522,0.02716759964823723,-0.08738890290260315,-0.6024886965751648,-0.7933287620544434,-0.01048097014427185,-0.00444483757019043,0.0008330345153808594,0.92603606818556,0.320750495080706,0.021324564169260436,0.19779164061923585
1714155405284039200,3.0640390625,-0.06368564069271088,-0.004948803223669529,0.018786633387207985,-0.08755266666412354,-0.6019034385681152,-0.7937548756599426,-0.005205504596233368,-0.00788348913192749,-0.0018689632415771484,0.9261289757060985,0.3204264383699614,0.021200645275540518,0.19789523608200277
1714155405294029300,3.074029296875,-0.058113615959882736,-0.005491022020578384,-0.003027386963367462,-0.08764205873012543,-0.6013519167900085,-0.794162929058075,-0.003986969590187073,-0.004711925983428955,-0.002330601215362549,0.9262327112420281,0.3201149397303599,0.021093932468471584,0.19792552618724107
1714155405304018200,3.08401806640625,-0.04874807596206665,0.011175306513905525,-0.014684841968119144,-0.08757191151380539,-0.6009230017662048,-0.7944952845573425,-0.006590075790882111,-0.001371920108795166,-0.0021050572395324707,0.9263290925018284,0.31985728360840754,0.021063691380537066,0.1978940862996533
1714155405314008300,3.09400830078125,-0.050314225256443024,0.029771095141768456,-0.01964411325752735,-0.08725932240486145,-0.6006664633750916,-0.794723629951477,-0.01091572642326355,-0.006923258304595947,-0.0018919706344604492,0.9264017460893046,0.31967151330340793,0.021173260732786237,0.19784248316083256
1714155405323997200,3.1039970703125,-0.046542927622795105,0.02683922089636326,-0.008463630452752113,-0.08699794113636017,-0.6004682183265686,-0.7949020862579346,-0.014015242457389832,-0.01674973964691162,-0.0012099742889404297,0.9264546834154918,0.31952524302577895,0.02127413503367894,0.19782002407058513
1714155405333987300,3.1139873046875,-0.027006348595023155,0.032778602093458176,-0.009691281244158745,-0.08682431280612946,-0.6003313660621643,-0.7950243949890137,-0.015562161803245544,-0.014475762844085693,-0.003254413604736328,0.9264846448039394,0.3194243892681856,0.021350631513841162,0.19783457644746183
1714155405343976200,3.12397607421875,-0.010782638564705849,0.046861398965120316,-0.02854805998504162,-0.08655834943056107,-0.6002762913703918,-0.7950949668884277,-0.020100578665733337,-0.004490554332733154,-0.006464481353759766,0.9265038631011873,0.31936049049577414,0.021479788468232217,0.1978337490087025
1714155405353966300,3.13396630859375,-0.00787462666630745,0.04881882295012474,-0.028643466532230377,-0.08612041920423508,-0.6003211140632629,-0.7951086759567261,-0.021393001079559326,0.0008949041366577148,-0.0029717683792114258,0.9265169489576213,0.3193352259498005,0.021695137975807195,0.19778940473961856
1714155405363956200,3.143956298828125,-0.013995368964970112,0.045656315982341766,-0.026461806148290634,-0.08565396815538406,-0.6003480553627014,-0.7951387763023376,-0.01781587302684784,-0.0026487112045288086,0.002475142478942871,0.9265369920938272,0.31929638695988094,0.0219189697087842,0.19773390357841092
1714155405373945300,3.1539453125,-0.03362462297081947,0.044081058353185654,-0.02521371655166149,-0.0852058008313179,-0.600217342376709,-0.7952855229377747,-0.013991586863994598,-0.00842517614364624,0.006375610828399658,0.9265836175364841,0.31916750745168726,0.022120807392066705,0.19770081926621041
1714155405383935200,3.163935302734375,-0.04647650569677353,0.04088659584522247,-0.022934049367904663,-0.08479879051446915,-0.5999186038970947,-0.7955543994903564,-0.012582793831825256,-0.012279212474822998,0.005698442459106445,0.9266597597150878,0.31894537145971574,0.02228540443179275,0.19768395370265768
1714155405393924400,3.17392431640625,-0.050488077104091644,0.028160948306322098,-0.022630248218774796,-0.08454586565494537,-0.5995877385139465,-0.7958307266235352,-0.008151277899742126,-0.010763823986053467,0.006218910217285156,0.9267405400008472,0.31872334590886586,0.022362394557030242,0.19765439750511457
1714155405403914200,3.183914306640625,-0.043634966015815735,0.028152424842119217,-0.019458957016468048,-0.08439818769693375,-0.5993850827217102,-0.7959990501403809,-0.007261350750923157,-0.004527270793914795,0.007256984710693359,0.9267921125091381,0.3185884826867148,0.022402176194588112,0.19762564165590807
1714155405413903400,3.1939033203125,-0.03287526220083237,0.03526599332690239,-0.011327394284307957,-0.08425255864858627,-0.5992217659950256,-0.7961374521255493,-0.008383549749851227,0.0030761361122131348,0.005228638648986816,0.9268306330288933,0.31847619929932186,0.02245402448756302,0.19762028455934255
1714155405423893200,3.203893310546875,-0.016197750344872475,0.027498353272676468,-0.004849787801504135,-0.08421660959720612,-0.5990425944328308,-0.7962760329246521,-0.006557926535606384,0.0035683512687683105,0.0041312575340271,0.9268586289961597,0.31836666326491725,0.0224644709323982,0.1976641996104096
1714155405433882000,3.213882080078125,-0.01086178794503212,0.014553260058164597,-0.0046975212171673775,-0.08429856598377228,-0.598930835723877,-0.796351432800293,-0.0018983334302902222,0.005821704864501953,0.004237174987792969,0.9268672216410446,0.318310082427455,0.022426899214519076,0.19771928425794522
1714155405443872300,3.223872314453125,-0.012647704221308231,0.011674915440380573,-0.015650304034352303,-0.08435554057359695,-0.5988847017288208,-0.7963801026344299,0.0006610900163650513,0.0100480318069458,0.0032435059547424316,0.9268728089097543,0.3182898195847843,0.022395148396886014,0.19772930024994217
1714155405453861000,3.233861083984375,-0.020551061257719994,0.011960139498114586,-0.01824142597615719,-0.08433839678764343,-0.5988944172859192,-0.7963746190071106,-0.0008514150977134705,0.0064566731452941895,0.004550278186798096,0.9268796133364993,0.31829435570015563,0.022391848932879474,0.19769042806854592
1714155405463851300,3.243851318359375,-0.04290776327252388,0.012058144435286522,-0.014413932338356972,-0.08428464829921722,-0.598798930644989,-0.7964521050453186,-0.0016070753335952759,-0.002198934555053711,0.010242938995361328,0.9269097067859058,0.3182334663683766,0.022392316066165183,0.19764727710143648
1714155405473841200,3.253841064453125,-0.06309916079044342,0.008357414975762367,-0.009797408245503902,-0.08420414477586746,-0.5985244512557983,-0.7966668605804443,-0.003610178828239441,-0.008698999881744385,0.013387501239776611,0.9269749589258588,0.3180651114865464,0.02238636875519605,0.19761260319939328
1714155405483830300,3.263830322265625,-0.0689711645245552,0.017269151285290718,-0.01393116731196642,-0.08411797136068344,-0.5980837345123291,-0.7970069050788879,-0.006275087594985962,-0.012679815292358398,0.01243048906326294,0.9270713322438314,0.31779914233805184,0.022366365940314353,0.19759084782800546
1714155405493820200,3.273820068359375,-0.05876747518777847,0.014550596475601196,-0.0132000632584095,-0.0840146616101265,-0.5976079106330872,-0.7973746061325073,-0.004883043467998505,-0.008501648902893066,0.010509371757507324,0.9271730702210661,0.3175106038391364,0.022354048762669564,0.19757891699653704
1714155405503809300,3.283809326171875,-0.03684166818857193,0.008665010333061218,-0.01921028457581997,-0.0838969349861145,-0.5972407460212708,-0.797662079334259,-0.003871619701385498,-0.001758277416229248,0.002969086170196533,0.9272600461521332,0.3172843167747191,0.02235204645967419,0.19753459239567644
1714155405513799200,3.293799072265625,-0.011361449956893921,0.010323626920580864,-0.038490571081638336,-0.08369167894124985,-0.5970747470855713,-0.7978079319000244,-0.0033749639987945557,0.011091530323028564,-0.003461599349975586,0.9273266150227245,0.31716655462896637,0.022392293353632534,0.1974067188964319
1714155405523788300,3.303788330078125,0.002065143082290888,0.015051803551614285,-0.04521026089787483,-0.08333645761013031,-0.5970439314842224,-0.7978681325912476,-0.00330294668674469,0.015790879726409912,-0.004591584205627441,0.9273818451643296,0.3171109065890752,0.022507813967351322,0.1972230049355042
1714155405533778200,3.313778076171875,-0.0020710662938654423,0.011862135492265224,-0.04271594434976578,-0.082997627556324,-0.5970890522003174,-0.7978696823120117,-0.007212325930595398,0.012448549270629883,-0.003979682922363281,0.9274215243145506,0.31710138298863283,0.022624426353221212,0.1970385464470149
1714155405543768000,3.32376806640625,-0.009609409607946873,0.02401733584702015,-0.036333680152893066,-0.08267267048358917,-0.5971811413764954,-0.797834575176239,-0.00920049101114273,0.009885609149932861,-0.0005816221237182617,0.9274442709552827,0.3171200206224159,0.022751196660730374,0.19688698268047697
1714155405553757200,3.333757080078125,-0.021049389615654945,0.025811240077018738,-0.026835979893803596,-0.08236275613307953,-0.5972364544868469,-0.7978252172470093,-0.007038481533527374,0.0029828548431396484,0.005176901817321777,0.9274626866578047,0.31711784762687306,0.022883669061150587,0.1967884477811302
1714155405563747000,3.3437470703125,-0.028393857181072235,0.02072247304022312,-0.01776844821870327,-0.08213835954666138,-0.5972304940223694,-0.7978526949882507,-0.006393119692802429,0.0018479228019714355,0.007310152053833008,0.9274819911649838,0.3170892933096752,0.022978745511625098,0.19673181264216516
1714155405573736200,3.353736083984375,-0.0395938865840435,0.02570711076259613,-0.013278626836836338,-0.08194100856781006,-0.5971061587333679,-0.7979660630226135,-0.0052324458956718445,0.0029594898223876953,0.0084763765335083,0.9275187709960904,0.3169944330786169,0.023054095165061714,0.19670253553321876
1714155405583726000,3.36372607421875,-0.046345531940460205,0.024106018245220184,-0.011678067035973072,-0.0817226767539978,-0.5967881083488464,-0.7982263565063477,-0.007617533206939697,0.002656698226928711,0.010750770568847656,0.9275903792443931,0.3167840549978518,0.023123087351912975,0.1966957969495628
1714155405593715200,3.373715087890625,-0.05310090631246567,0.024423200637102127,-0.011680463328957558,-0.08152523636817932,-0.596308171749115,-0.7986051440238953,-0.007937043905258179,0.0015663504600524902,0.010381877422332764,0.9276919287928472,0.31648200105524305,0.02316380343902421,0.19669835878285477
1714155405603705000,3.383705078125,-0.05390677973628044,0.01769712008535862,-0.009573636576533318,-0.08135534077882767,-0.5957675576210022,-0.7990258932113647,-0.003193601965904236,0.0007358193397521973,0.007338881492614746,0.9278035736159702,0.3161479745441826,0.0231845633104322,0.19670658857509146
1714155405613694200,3.393694091796875,-0.05383513867855072,0.014732223935425282,-0.017165375873446465,-0.0812341645359993,-0.5952432751655579,-0.7994288802146912,0.001171305775642395,0.0024240612983703613,0.009099841117858887,0.9279147925874032,0.3158298080791271,0.02317546054386356,0.1966943412793687
1714155405623684000,3.40368408203125,-0.046406522393226624,0.002201784634962678,-0.01942213997244835,-0.08114882558584213,-0.5947911143302917,-0.7997739315032959,0.0023677125573158264,0.0032842159271240234,0.009979069232940674,0.9280161505657005,0.31555854685359463,0.023147885541405424,0.1966545556630877
1714155405633674200,3.41367431640625,-0.034258827567100525,0.005837532225996256,-0.019672077149152756,-0.08109767735004425,-0.594502866268158,-0.7999934554100037,0.0019198209047317505,0.006886959075927734,0.002080857753753662,0.9280904939017508,0.31538716046538845,0.02311292968998487,0.19658291443902443
1714155405643663000,3.4236630859375,-0.010854970663785934,0.006305183283984661,-0.02022947557270527,-0.08102674782276154,-0.5944005846977234,-0.8000766038894653,-0.0008519068360328674,0.010751903057098389,-0.000918269157409668,0.92812795599405,0.3153213062047407,0.023112013965462294,0.19651156062921876
1714155405653653200,3.4336533203125,-0.009162264876067638,0.004232711158692837,-0.01958286017179489,-0.08092227578163147,-0.5944200754165649,-0.8000727295875549,-0.0021313130855560303,0.011519074440002441,-0.00041860342025756836,0.9281425160401319,0.3153220913228376,0.02314310930952462,0.19643799776917645
1714155405663642000,3.44364208984375,-0.017234839498996735,0.001502971164882183,-0.019412152469158173,-0.08085602521896362,-0.5944168567657471,-0.8000817894935608,-0.002197563648223877,0.01087498664855957,-0.000317990779876709,0.9281604891890134,0.31531428143639945,0.023151696601144467,0.19636440384377418
1714155405673632300,3.45363232421875,-0.031914714723825455,0.008939049206674099,-0.012678216211497784,-0.08081470429897308,-0.5943010449409485,-0.800171971321106,-0.0036274194717407227,0.005464434623718262,0.0026866793632507324,0.9281973151230308,0.3152437705257647,0.02313798685259323,0.1963051327868031
1714155405683621000,3.46362109375,-0.0413375087082386,0.006827961653470993,-0.01072691846638918,-0.08074498921632767,-0.5940777063369751,-0.8003448247909546,-0.002934195101261139,-0.002296745777130127,0.007025182247161865,0.9282495841361023,0.3151068054065683,0.023136057294216916,0.19627799336815685
1714155405693611300,3.473611328125,-0.03613220527768135,0.010231215506792068,-0.012821894139051437,-0.08060935884714127,-0.5938065052032471,-0.8005597591400146,-0.002795182168483734,-0.0008894801139831543,0.0049664974212646484,0.9283148771041433,0.31493456926857183,0.023159144116081394,0.1962428518584664
1714155405703600000,3.48360009765625,-0.02361081913113594,0.010023488663136959,-0.01729653775691986,-0.0804271399974823,-0.5936195254325867,-0.8007166981697083,-0.0050068199634552,0.004172563552856445,0.0006068944931030273,0.9283700250650166,0.3148063169708645,0.02320818179802342,0.1961820543562541
1714155405713590300,3.49359033203125,-0.018297545611858368,0.0120741231366992,-0.01326910499483347,-0.08025594055652618,-0.5934425592422485,-0.800865113735199,-0.004582919180393219,0.0071236491203308105,-0.004371702671051025,0.9284185688564077,0.3146846706177677,0.023259680017676185,0.1961413893730982
1714155405723580200,3.503580078125,-0.019658688455820084,0.017256634309887886,-0.006068184040486813,-0.08009923249483109,-0.5932271480560303,-0.8010403513908386,-0.004571788012981415,0.008342504501342773,-0.005661308765411377,0.9284656911095213,0.3145414686886504,0.023312735065098348,0.19614167453520562
1714155405733568800,3.51356884765625,-0.028389491140842438,0.010540674440562725,0.0002049584873020649,-0.08001145720481873,-0.5929628014564514,-0.8012447953224182,-0.0021113380789756775,0.0030428171157836914,-0.005548417568206787,0.928515348818703,0.31437746254197135,0.023332701911218136,0.19616705598414325
1714155405743558700,3.52355859375,-0.0371217280626297,0.0062236906960606575,-0.005363444797694683,-0.07994870841503143,-0.5926468968391418,-0.8014847636222839,0.001625344157218933,-0.0003706812858581543,-0.0063918232917785645,0.9285788130221574,0.31418701484074685,0.023326584098560296,0.19617273183773543
1714155405753547800,3.5335478515625,-0.034288015216588974,0.008445299230515957,-0.0018275660695508122,-0.07991664856672287,-0.5923642516136169,-0.8016968965530396,0.003027617931365967,-0.0013552308082580566,-0.0025480985641479492,0.9286352913545152,0.31401958438372946,0.023307993510841167,0.19617550170549114
1714155405763537700,3.54353759765625,-0.0320243276655674,0.014528226107358932,-0.0019751051440835,-0.07983627915382385,-0.5921535491943359,-0.801860511302948,-0.0018745288252830505,0.0006161332130432129,0.004176795482635498,0.9286768392932947,0.3138878972421968,0.023326474823346488,0.1961875506405129
1714155405773526800,3.55352685546875,-0.030149731785058975,0.01306987926363945,-0.005362180061638355,-0.0797211155295372,-0.5919706225395203,-0.8020070791244507,-0.005194045603275299,0.0020353198051452637,0.005223631858825684,0.928714813249309,0.3137683115299267,0.02336465116406339,0.1961946206712158
1714155405783516700,3.5635166015625,-0.02415069378912449,0.015978049486875534,-0.00725728552788496,-0.07960593700408936,-0.5917518138885498,-0.8021799921989441,-0.004561528563499451,0.00166398286819458,0.004648864269256592,0.9287606519324318,0.3136281128510179,0.023397014818930844,0.19619795734724887
1714155405793505800,3.573505859375,-0.0219199787825346,0.013938868418335915,-0.008465828374028206,-0.07949794828891754,-0.5915064811706543,-0.802371621131897,-0.0018466487526893616,-0.0009160041809082031,0.004764199256896973,0.9288091244193754,0.31347314032990803,0.023426243104249823,0.1962129293506193
1714155405803495700,3.58349560546875,-0.022421717643737793,0.007445282302796841,-0.004288925789296627,-0.07942568510770798,-0.5912553071975708,-0.8025637865066528,0.0013769939541816711,-0.003074467182159424,0.0007144808769226074,0.928860483705631,0.31331940225402233,0.023431739627048837,0.1962140257164755
1714155405813485600,3.593485595703125,-0.024256955832242966,0.001271009910851717,-0.01249292679131031,-0.07936424016952515,-0.5910530090332031,-0.8027188777923584,0.0020632222294807434,-0.0048179030418396,-0.0029909610748291016,0.9289059967438935,0.3131956538044807,0.02343159274947016,0.19619642288152822
1714155405823474700,3.603474609375,-0.027489498257637024,0.004858554340898991,-0.0157941821962595,-0.07923983782529831,-0.5908554196357727,-0.8028765916824341,0.0020914077758789062,-0.0064955949783325195,-0.001719355583190918,0.928960159242926,0.3130682389950841,0.023451508864562154,0.1961407446688071
1714155405833464600,3.613464599609375,-0.033291250467300415,0.0023021858651190996,-0.019886061549186707,-0.079084113240242,-0.5906333327293396,-0.8030553460121155,0.0016305074095726013,-0.009159088134765625,0.0018773674964904785,0.9290233524995177,0.31292340150561526,0.023479097228077568,0.19606934896564981
1714155405843453700,3.62345361328125,-0.02681364305317402,0.000782852410338819,-0.02567524090409279,-0.07898128777742386,-0.5904368758201599,-0.8032099604606628,0.0005205944180488586,-0.009172499179840088,0.002932250499725342,0.9290842983623177,0.3128000863678291,0.023476043356622782,0.1959777808241563
1714155405853443600,3.633443603515625,-0.02189750224351883,0.00614805705845356,-0.027158357203006744,-0.07884033769369125,-0.590287983417511,-0.8033332228660583,-0.0021380558609962463,-0.007978618144989014,0.005329132080078125,0.9291397603236343,0.3127001932396449,0.02349391250349154,0.1958722718007031
1714155405863432700,3.6434326171875,-0.013879521749913692,0.01514261681586504,-0.031313952058553696,-0.07862240076065063,-0.5901934504508972,-0.803424060344696,-0.005316197872161865,-0.005845308303833008,0.004046618938446045,0.9291896045589187,0.3126231390405782,0.02355308782120519,0.19575161358241489
1714155405873422600,3.653422607421875,-0.005494399927556515,0.012867478653788567,-0.03184664994478226,-0.07834728807210922,-0.5901856422424316,-0.8034566640853882,-0.007025629281997681,-0.0018095970153808594,0.0031179189682006836,0.929224037946438,0.3125895605963102,0.023652256194577018,0.19562997626818632
1714155405883411700,3.66341162109375,-0.013517971150577068,0.01192471943795681,-0.025692619383335114,-0.07806908339262009,-0.5901712775230408,-0.8034943342208862,-0.006434090435504913,-0.004067063331604004,0.0019501447677612305,0.9292579830161433,0.3125516616186568,0.023754995969819347,0.19551667271512524
1714155405893401600,3.673401611328125,-0.015915507450699806,0.01600601337850094,-0.02537457086145878,-0.07781237363815308,-0.5900993943214417,-0.8035719990730286,-0.005637943744659424,-0.00557321310043335,0.0038893818855285645,0.9293016556661735,0.3124829613029272,0.023841154056684726,0.19540845157604853
1714155405903391500,3.6833916015625,-0.02694498933851719,0.02390335127711296,-0.022450421005487442,-0.07750219851732254,-0.5899942517280579,-0.8036791682243347,-0.005017325282096863,-0.009386181831359863,0.008421599864959717,0.9293473372203596,0.31238809577243404,0.023960078043191776,0.19532861635005971
1714155405913380600,3.693380615234375,-0.03139566630125046,0.01775491051375866,-0.015376131050288677,-0.07721573114395142,-0.5898537039756775,-0.8038098812103271,-0.00476972758769989,-0.011769771575927734,0.0072553157806396484,0.9293926599811455,0.3122748388543869,0.02407275718973394,0.1952796153260143
1714155405923370500,3.70337060546875,-0.030844924971461296,0.010260510258376598,-0.022449487820267677,-0.07698755711317062,-0.5896955132484436,-0.8039478063583374,-0.0031821131706237793,-0.009089887142181396,0.004951834678649902,0.9294456877288113,0.3121588250907854,0.024144373778581366,0.19520404131676206
1714155405933359600,3.713359619140625,-0.031230388209223747,0.012942579574882984,-0.021546341478824615,-0.07678587734699249,-0.5895448327064514,-0.8040775656700134,-0.0011254921555519104,-0.007226347923278809,0.0034031271934509277,0.9294985066414339,0.3120505752439512,0.024200049146895136,0.1951185245383044
1714155405943349500,3.723349609375,-0.014658870175480843,0.018576230853796005,-0.016440264880657196,-0.07660788297653198,-0.5894293189048767,-0.8041792511940002,-0.0008304566144943237,-0.010057926177978516,0.0053511857986450195,0.9295405689247697,0.3119649766043191,0.024253268652971408,0.19504861943325041
1714155405953338600,3.733338623046875,0.007912060245871544,0.016339974477887154,-0.010538366623222828,-0.07647489756345749,-0.589441180229187,-0.8041832447052002,0.0005624294281005859,-0.011632978916168213,0.007674455642700195,0.9295459021623984,0.3119568739993167,0.02431625990943125,0.19502865266572006
1714155405963328500,3.74332861328125,0.029585663229227066,0.012967080809175968,-0.01666337065398693,-0.07636193186044693,-0.5896643400192261,-0.8040303587913513,0.004279419779777527,-0.0030175447463989258,0.005293786525726318,0.9295108146842694,0.3120734307524826,0.024392606598836214,0.19499948762888755
1714155405973317600,3.753317626953125,0.043723106384277344,0.014354321174323559,-0.030433310195803642,-0.07619145512580872,-0.5900598168373108,-0.8037563562393188,0.005009204149246216,0.008944153785705566,0.0025783777236938477,0.9294544129294602,0.31228426954972704,0.0245023285263893,0.19491703648648448
1714155405983307500,3.7633076171875,0.033437181264162064,0.014854196459054947,-0.0373639240860939,-0.07590880990028381,-0.5904973745346069,-0.8034617304801941,0.00504700094461441,0.007550597190856934,0.006632447242736816,0.9294040274813958,0.3125079347278156,0.02465633474995585,0.19477938516367488
1714155405993297700,3.773297607421875,0.013549492694437504,0.0050849225372076035,-0.037977512925863266,-0.07566098123788834,-0.5908152461051941,-0.8032513856887817,0.007484711706638336,-0.0015461444854736328,0.008024334907531738,0.9293783742931949,0.31266686127593246,0.024774034451162857,0.19463188960529523
1714155406003286500,3.78328662109375,-0.009642113000154495,0.0001871034037321806,-0.030618932098150253,-0.07545225322246552,-0.5909176468849182,-0.8031956553459167,0.009030751883983612,-0.007547259330749512,0.009479165077209473,0.9293968647854473,0.3127061754680899,0.024840104724509034,0.19447151051513673
1714155406013276700,3.793276611328125,-0.02747325599193573,0.005409029312431812,-0.03259626403450966,-0.07527104020118713,-0.5908309817314148,-0.8032764196395874,0.007048994302749634,-0.009205639362335205,0.008919119834899902,0.9294475950089175,0.31263875808920516,0.024875593385331643,0.19433316720483262
1714155406023265500,3.803265625,-0.03408987820148468,0.014637415297329426,-0.0250770952552557,-0.07503876835107803,-0.5906798243522644,-0.8034093379974365,0.0010489001870155334,-0.007602035999298096,0.009616613388061523,0.9295080416288359,0.3125276426902119,0.024935992741541995,0.19421510998920147
1714155406033255700,3.813255615234375,-0.026208946481347084,0.015391622669994831,-0.008050840348005295,-0.07482939213514328,-0.5905501246452332,-0.8035241961479187,-0.00291413813829422,-0.007792770862579346,0.010357081890106201,0.9295505014939708,0.31242995040611177,0.025008487546182796,0.1941598384623214
1714155406043244500,3.82324462890625,-0.004771031904965639,0.018382351845502853,-0.005656126420944929,-0.07462135702371597,-0.590483546257019,-0.8035924434661865,-0.00365622341632843,-0.0007639527320861816,0.0054662227630615234,0.9295731140253869,0.3123679972712796,0.025099942732284202,0.19413932369226503
1714155406053234700,3.833234619140625,0.014173364266753197,0.019592493772506714,-0.009086544625461102,-0.07441408187150955,-0.5905013084411621,-0.8035986423492432,0.0004089623689651489,0.01220846176147461,0.001688241958618164,0.9295769613334461,0.31235460571274287,0.02520500695354965,0.19412883760441862
1714155406063223600,3.8432236328125,0.013453777879476547,0.02160850539803505,-0.019379662349820137,-0.0741356611251831,-0.5906188488006592,-0.8035379648208618,0.0030602216720581055,0.016003429889678955,0.0003458261489868164,0.9295679703666658,0.31239130975704626,0.025350995022383995,0.19409407581554283
1714155406073213700,3.853213623046875,-0.0008941083215177059,0.02052646316587925,-0.01898258365690708,-0.07379133999347687,-0.5907514691352844,-0.8034722208976746,0.006591632962226868,0.009773075580596924,0.0009209513664245605,0.9295632987459332,0.3124298915747579,0.025523444585803252,0.19403177232831423
1714155406083203600,3.86320361328125,-0.005744523368775845,0.01614077016711235,-0.010769395157694817,-0.0734860897064209,-0.5908187627792358,-0.8034506440162659,0.009292371571063995,0.00237882137298584,0.0012808442115783691,0.9295689188434777,0.3124351699786664,0.025669937337880474,0.1939763131856666
1714155406093192700,3.873192626953125,-0.005795017350465059,0.015765264630317688,-0.00779564306139946,-0.07325854152441025,-0.5908669233322144,-0.8034360408782959,0.009843021631240845,0.0011452436447143555,-0.0004885196685791016,0.9295733075359401,0.31243780481504724,0.025779552183094894,0.19393701319067036
1714155406103182600,3.8831826171875,0.0025523952208459377,0.02684934064745903,-0.00244268961250782,-0.07307340204715729,-0.5909531116485596,-0.8033894896507263,0.0074606165289878845,0.00594639778137207,-0.0016489624977111816,0.9295597199295028,0.3124661710293115,0.025887066929941433,0.19394187727072823
1714155406113171500,3.89317138671875,0.0071075186133384705,0.03142012283205986,0.0013844724744558334,-0.07289538532495499,-0.5910868048667908,-0.8033073544502258,0.0018962472677230835,0.009025096893310547,-0.0004798769950866699,0.9295291115950891,0.3125217873915451,0.026009007058106555,0.1939827022088667
1714155406123161600,3.90316162109375,1.1271723508834839,0.18169990181922913,0.22387319803237915,-0.07378289103507996,-0.5956332683563232,-0.7998606562614441,0.00302790105342865,0.014578700065612793,-0.003407776355743408,0.9285483928446151,0.31524983360416536,0.026214890326209297,0.19423718463203074
1714155406133150500,3.913150390625,0.3056347370147705,0.12082403153181076,0.0908660888671875,-0.07326144725084305,-0.6008888483047485,-0.7959681749343872,-0.001216702163219452,0.053113579750061035,0.014123082160949707,0.9272774019755039,0.3182118368335137,0.02751596682799989,0.1952964983858303
1714155406143140600,3.923140625,0.5247055292129517,0.18417637050151825,0.030402209609746933,-0.07229530811309814,-0.6037687659263611,-0.7938744425773621,-0.07905662059783936,0.09980154037475586,0.03705376386642456,0.9266140267040687,0.31976234351072225,0.02854515471740451,0.19576412143248395
1714155406153130500,3.933130615234375,0.2569202780723572,0.06260201334953308,-0.029083222150802612,-0.07137874513864517,-0.6070216298103333,-0.7914732098579407,-0.040788598358631134,-0.06972086429595947,0.061630070209503174,0.9259301200927482,0.3215482791596611,0.029497681536605157,0.19593376391077644
1714155406163119600,3.94311962890625,0.04114591330289841,0.07964171469211578,-0.1865367740392685,-0.07037170976400375,-0.6080349683761597,-0.7907852530479431,0.06529054790735245,-0.020688116550445557,0.022306859493255615,0.9258233342343737,0.3220346377451128,0.03001791490511357,0.19556014911930078
1714155406173109500,3.953109619140625,-0.0354616716504097,0.05671083182096481,-0.2343672662973404,-0.06830430775880814,-0.6081751585006714,-0.7908586859703064,0.05083300173282623,0.010427355766296387,0.054316937923431396,0.9260373448919907,0.3219056651856408,0.03077964306561235,0.1946385544319326
1714155406183098600,3.9630986328125,-0.11948654055595398,0.12002348899841309,-0.10124756395816803,-0.06682898104190826,-0.6076308488845825,-0.7914029359817505,0.018946900963783264,-0.026173412799835205,0.01712620258331299,0.926309889516725,0.32143633949838185,0.03126044160358908,0.19403949857818464
1714155406193088500,3.973088623046875,-0.26459944248199463,0.05849621444940567,-0.22631560266017914,-0.06511344760656357,-0.6062319278717041,-0.7926177978515625,0.019153982400894165,0.019409477710723877,-0.003082275390625,0.9267455676780518,0.32043855517949527,0.03178404210762985,0.19352366449678665
1714155406203077600,3.98307763671875,-0.509486734867096,-0.07564960420131683,-0.27150198817253113,-0.06360161304473877,-0.6032180786132812,-0.7950363755226135,-0.0017822980880737305,0.00485992431640625,-0.00830841064453125,0.9276449171147926,0.3185478906968181,0.031765790008756865,0.1923358498589866
1714155406213067500,3.993067626953125,-0.4779614806175232,-0.06367842853069305,-0.0025452878326177597,-0.06340308487415314,-0.5991555452346802,-0.7981182336807251,-0.024640120565891266,-0.059062838554382324,0.0019451379776000977,0.928627378495772,0.3161862089719036,0.031099224019862988,0.19159954765981757
1714155406223056600,4.003056640625,-0.3112257421016693,0.006468701176345348,0.2416047900915146,-0.0643439069390297,-0.5958653092384338,-0.800502598285675,-0.013979457318782806,-0.08043473958969116,0.01681119203567505,0.9291280212351216,0.31436072274180166,0.0304307581706914,0.19228236432120865
1714155406233046500,4.013046630859375,-0.07389406859874725,0.01571706123650074,0.13759922981262207,-0.06551161408424377,-0.5942018032073975,-0.8016436100006104,-0.02901657670736313,-0.034567177295684814,0.02928948402404785,0.9292271244370043,0.31349751730402703,0.029958477819374156,0.19328394947534538
1714155406243036400,4.023036376953125,0.021456416696310043,0.030836625024676323,-0.06153836473822594,-0.06548294425010681,-0.5940825939178467,-0.8017342686653137,-0.03815474361181259,0.08584290742874146,0.02466517686843872,0.9292127710873237,0.3134192200389309,0.030020926012215902,0.19347026771849377
1714155406253025500,4.033025634765625,-0.056039437651634216,0.014776699244976044,-0.08191747218370438,-0.06481707841157913,-0.5940230488777161,-0.8018324971199036,-0.03457866609096527,0.06605368852615356,0.022779762744903564,0.9293093216688502,0.31331961746264747,0.030241728941533902,0.1931333209926188
1714155406263015400,4.043015380859375,-0.13462185859680176,-0.01617695577442646,-0.028131209313869476,-0.06449123471975327,-0.593248188495636,-0.8024322390556335,-0.004722625017166138,-0.008466839790344238,0.019961535930633545,0.9295205259193894,0.31284187766704546,0.030229919025750836,0.19289280398670994
1714155406273004500,4.053004638671875,-0.13128001987934113,-0.017239024862647057,-0.00022680649999529123,-0.06456714123487473,-0.5921477675437927,-0.8032384514808655,0.006049685180187225,-0.0487823486328125,0.01585441827774048,0.9297500864871397,0.3122161052777905,0.03003114562436151,0.1928312748973937
1714155406282994400,4.062994384765625,-0.08730937540531158,0.0015423859003931284,-0.014467261731624603,-0.06462767720222473,-0.5912520885467529,-0.8038931488990784,-0.014794304966926575,-0.036982715129852295,0.005309164524078369,0.9299284083730719,0.31170567532212634,0.029883224502919775,0.19282003271761217
1714155406292983600,4.072983642578125,-0.07599829137325287,0.020564546808600426,-0.04865925386548042,-0.06435683369636536,-0.5907078385353088,-0.804314911365509,-0.030461281538009644,-0.004033923149108887,-0.003454923629760742,0.9300650949407893,0.3113640690667512,0.029916103116061844,0.19270797407457277
1714155406302973400,4.082973388671875,-0.10005488991737366,-0.0006134428549557924,-0.052172232419252396,-0.06395560503005981,-0.5901696085929871,-0.8047418594360352,-0.02416389435529709,-0.004358530044555664,-0.0029668807983398438,0.9302252611750507,0.31101479526860626,0.02998095052316982,0.19248872082765012
1714155406312963600,4.092963623046875,-0.106204554438591,-0.025823989883065224,-0.04576006904244423,-0.0638231411576271,-0.5894390940666199,-0.8052875995635986,-0.007374361157417297,-0.02196526527404785,0.006047487258911133,0.9304197912576897,0.3105855814989142,0.029879683427335612,0.19225689685800412
1714155406322952400,4.102952392578125,-0.07422398030757904,-0.026737721636891365,-0.04943256825208664,-0.06384572386741638,-0.5886363983154297,-0.8058727383613586,0.002902120351791382,-0.024125993251800537,0.014323055744171143,0.9306250009263511,0.31013243855075934,0.02968997976626138,0.1920247339349876
1714155406332942600,4.112942626953125,-0.04109116643667221,-0.009533434174954891,-0.0566902831196785,-0.0637424886226654,-0.5881522297859192,-0.8062343597412109,-0.0013209879398345947,-0.00996178388595581,0.019262313842773438,0.9307756074394874,0.30984976968180133,0.02959604688722262,0.19176558357078027
1714155406342931500,4.122931396484375,-0.03754996508359909,-0.011449579149484634,-0.043801650404930115,-0.06352526694536209,-0.587920606136322,-0.8064203858375549,-0.007473871111869812,-0.00006157159805297852,0.01960092782974243,0.9308776909913552,0.3096998443630741,0.02959419405171882,0.1915119116593832
1714155406352921600,4.132921630859375,-0.06035018712282181,-0.017832642421126366,-0.033933769911527634,-0.06339047104120255,-0.5876519083976746,-0.8066267967224121,-0.0008795410394668579,-0.004266977310180664,0.02105855941772461,0.9309764605805226,0.3095364639783414,0.029559711455765712,0.19130099161825725
1714155406362910500,4.142910400390625,-0.08557325601577759,-0.023726219311356544,-0.020473355427384377,-0.06341663748025894,-0.5871617197990417,-0.8069816827774048,0.010941661894321442,-0.015819847583770752,0.024709343910217285,0.9311019449107899,0.3092614753695726,0.029436405145757488,0.19115414265165515
1714155406372900600,4.152900634765625,-0.0890093743801117,-0.033410802483558655,-0.023178327828645706,-0.06361693143844604,-0.5864723920822144,-0.8074670433998108,0.020754992961883545,-0.01853853464126587,0.01988464593887329,0.9312556348599236,0.3088903506110908,0.029210162649216352,0.19104058452952077
1714155406382889500,4.162889404296875,-0.07435506582260132,-0.04104582220315933,-0.025400202721357346,-0.06385122239589691,-0.5858495831489563,-0.807900607585907,0.02539907395839691,-0.008129298686981201,0.012627720832824707,0.9314021779849894,0.308562467007281,0.028963899348139234,0.1908937568850978
1714155406392879400,4.17287939453125,-0.049683164805173874,-0.04482937231659889,-0.015039773657917976,-0.06411056965589523,-0.5854483842849731,-0.808170735836029,0.02813035249710083,0.00221174955368042,0.003132343292236328,0.9315058426157194,0.3083653228144512,0.028730566796329376,0.19074121096564517
1714155406402869800,4.182869873046875,-0.02131916768848896,-0.04486905410885811,-0.00603855587542057,-0.06439737975597382,-0.5853590369224548,-0.8082126975059509,0.028218798339366913,0.014909207820892334,-0.0009761452674865723,0.9315427447989109,0.308349852457611,0.028530860302037598,0.19061596747833176
1714155406412858400,4.1928583984375,-0.006238006986677647,-0.04052677005529404,0.005099116358906031,-0.06474136561155319,-0.5854501724243164,-0.8081192374229431,0.02929520606994629,0.021256446838378906,-0.0017409920692443848,0.9315329908319955,0.30844314342064383,0.028340886927359827,0.1905412913512255
1714155406422848800,4.202848876953125,-0.005139719694852829,-0.03856588527560234,0.018041813746094704,-0.06518103182315826,-0.5855230689048767,-0.8080310821533203,0.032130494713783264,0.017301082611083984,-0.0039958953857421875,0.931509158247884,0.3085343955565566,0.028124583484708605,0.19054220203450586
1714155406432837400,4.21283740234375,-0.008903725072741508,-0.03814031183719635,0.022277170792222023,-0.06562923640012741,-0.5855922698974609,-0.807944655418396,0.03411983698606491,0.013936996459960938,-0.004891037940979004,0.9314795634054137,0.30862357703455934,0.027913493598299043,0.19057347512841114
1714155406442827800,4.222827880859375,-0.020984888076782227,-0.03366673365235329,0.022549079731106758,-0.06595113128423691,-0.5857042074203491,-0.8078372478485107,0.034090787172317505,0.014125227928161621,-0.007455110549926758,0.9314464377590193,0.30872356721429195,0.02776911140161592,0.19059447800802815
1714155406452816400,4.23281640625,-0.03228142857551575,-0.03264328092336655,0.02786128595471382,-0.06618435680866241,-0.585715651512146,-0.8078099489212036,0.02980741113424301,0.010856032371520996,-0.013906359672546387,0.9314319623783218,0.3087552906778132,0.027662407602690554,0.19062938221132575
1714155406462806800,4.242806884765625,-0.043828368186950684,-0.026744112372398376,0.03225603699684143,-0.06637648493051529,-0.5855133533477783,-0.8079407215118408,0.025910191237926483,0.007602035999298096,-0.019818007946014404,0.9314563978870591,0.30865886107328105,0.027555979837364842,0.1906811832927365
1714155406472796700,4.252796630859375,-0.051763251423835754,-0.016264840960502625,0.04093234986066818,-0.06651778519153595,-0.5851130485534668,-0.8082190752029419,0.020771943032741547,0.004012584686279297,-0.019539713859558105,0.9315095365583203,0.30844110928365576,0.027468899521973657,0.19078661646628486
1714155406482785800,4.262785888671875,-0.05631619691848755,-0.0049325572326779366,0.04042315110564232,-0.06658536940813065,-0.5845662355422974,-0.808609127998352,0.016094043850898743,0.0030232667922973633,-0.02253711223602295,0.931584309572155,0.30812960941751577,0.02741496533320801,0.19093276170006424
1714155406492775700,4.272775634765625,-0.052466753870248795,0.0017293398268520832,0.04328784719109535,-0.06658364087343216,-0.5839717984199524,-0.8090386390686035,0.01059914380311966,0.006823360919952393,-0.025525569915771484,0.9316654111541662,0.30778248714749146,0.027397267136245455,0.19109893462257344
1714155406502764800,4.282764892578125,-0.050015583634376526,0.017374346032738686,0.04327533021569252,-0.06648904830217361,-0.5834226608276367,-0.8094425201416016,0.0032871440052986145,0.010882437229156494,-0.026784896850585938,0.9317353894637083,0.30745048737470104,0.027439698753286494,0.19128628892151472
1714155406512754700,4.292754638671875,-0.03909134492278099,0.033256106078624725,0.040810175240039825,-0.06625000387430191,-0.5829585790634155,-0.8097964525222778,-0.0015905722975730896,0.010891377925872803,-0.022433161735534668,0.9317878519305637,0.3071506297936917,0.027573123443136605,0.1914933465360794
1714155406522743800,4.302743896484375,-0.03837815299630165,0.03991640731692314,0.041886091232299805,-0.06593598425388336,-0.5825442671775818,-0.810120165348053,-0.004452809691429138,0.0055484771728515625,-0.01835578680038452,0.931829818128663,0.30687064706321737,0.02775473460478431,0.19171166338473683
1714155406532733700,4.312733642578125,-0.0358382984995842,0.04388371855020523,0.03738575056195259,-0.06561581790447235,-0.5821133255958557,-0.810455858707428,-0.003094501793384552,0.002996504306793213,-0.014968335628509521,0.9318725767417044,0.3065801096441126,0.027941078918846018,0.19194146226294062
1714155406542723600,4.3227236328125,-0.036419399082660675,0.041081540286540985,0.029930496588349342,-0.06529195606708527,-0.5816870331764221,-0.8107879757881165,-0.003967687487602234,0.0013800263404846191,-0.011202991008758545,0.931917179259412,0.3062923205479532,0.0281250697618617,0.19215699528852417
1714155406552712700,4.332712646484375,-0.03832174837589264,0.03845885768532753,0.02380562573671341,-0.06497891992330551,-0.5812864899635315,-0.8111003041267395,-0.0063711777329444885,-0.002545297145843506,-0.010234534740447998,0.9319638908272032,0.30602163128733445,0.028294807109181138,0.1923367238673557
1714155406562702600,4.34270263671875,-0.04441079869866371,0.03858828917145729,0.011790508404374123,-0.06463620066642761,-0.5808514356613159,-0.8114392757415771,-0.008331328630447388,-0.005986273288726807,-0.0045855045318603516,0.932027888589821,0.3057293315193926,0.0284591926207126,0.1924671723620569
1714155406572691700,4.352691650390625,-0.04717755690217018,0.036625806242227554,0.0016852763947099447,-0.06429699063301086,-0.5803421139717102,-0.8118306398391724,-0.010516852140426636,-0.010523974895477295,0.0008107423782348633,0.9321129959499235,0.3053959019271781,0.028601258457776474,0.1925634828786353
1714155406582681600,4.362681640625,-0.0464467853307724,0.03624550625681877,0.00178461242467165,-0.06400180608034134,-0.5798054933547974,-0.8122372627258301,-0.015618555247783661,-0.013715624809265137,0.003170490264892578,0.932204788809062,0.30505233623991307,0.028713112077175473,0.19264695245164604
1714155406592670700,4.372670654296875,-0.031498730182647705,0.03365185111761093,-0.005581291392445564,-0.06374183297157288,-0.5793436765670776,-0.8125872015953064,-0.020318828523159027,-0.011354565620422363,0.0018267035484313965,0.9322844609576686,0.3047561474688515,0.028811370120583865,0.19271574460743868
1714155406602660600,4.38266064453125,-0.019822100177407265,0.038980837911367416,-0.0063717179000377655,-0.0634469985961914,-0.579054057598114,-0.8128166198730469,-0.022917747497558594,-0.007783710956573486,0.004344940185546875,0.9323356656657078,0.30455544498413883,0.028942573570982878,0.19276520865095376
1714155406612649700,4.392649658203125,-0.005332532804459333,0.03658425807952881,-0.012481075711548328,-0.0631314292550087,-0.5788968801498413,-0.8129531145095825,-0.023675821721553802,-0.005301058292388916,0.00792992115020752,0.9323660986769174,0.30442889807156764,0.029094397201183998,0.19279491711645497
1714155406622639600,4.4026396484375,-0.0028552599251270294,0.028919948264956474,-0.014157270081341267,-0.06283964216709137,-0.578843891620636,-0.81301349401474,-0.023052074015140533,-0.0035229921340942383,0.00783771276473999,0.932382962644445,0.30436575005550065,0.029236198559168425,0.19279158808429914
1714155406632629800,4.412629638671875,-0.009417181834578514,0.024549700319767,-0.01873830519616604,-0.06260208785533905,-0.57880699634552,-0.813058078289032,-0.02229781448841095,-0.0047348737716674805,0.010216891765594482,0.9324001939084128,0.30431864317940893,0.02934503531354703,0.19276623576802604
1714155406642618600,4.42261865234375,-0.01781093329191208,0.017055299133062363,-0.023606032133102417,-0.06239872798323631,-0.5787534713745117,-0.8131117820739746,-0.02158563956618309,-0.006390511989593506,0.012147486209869385,0.9324251581876369,0.3042666746474944,0.029425952011722427,0.19271535996342878
1714155406652608500,4.4326083984375,-0.023292092606425285,0.005363223142921925,-0.022964410483837128,-0.06226690113544464,-0.578687310218811,-0.813169002532959,-0.01897089183330536,-0.00903540849685669,0.013776302337646484,0.9324551769566255,0.3042161944256844,0.029462070176627088,0.1926442836434868
1714155406662597600,4.44259765625,-0.02373204566538334,-0.005941363051533699,-0.01833983138203621,-0.0622657835483551,-0.578610897064209,-0.8132234811782837,-0.015996545553207397,-0.010607242584228516,0.01567709445953369,0.9324853139983356,0.30417466062897136,0.029428616386484644,0.1925691117199119
1714155406672587500,4.45258740234375,-0.018854837864637375,-0.018969813361763954,-0.022521793842315674,-0.06239762157201767,-0.5785249471664429,-0.8132745027542114,-0.014750812202692032,-0.0062375664710998535,0.013286709785461426,0.9325186265531675,0.3041432737750591,0.029319378807246915,0.192474016479171
1714155406682576600,4.46257666015625,-0.016626838594675064,-0.022808227688074112,-0.020798727869987488,-0.06260080635547638,-0.5784574747085571,-0.8133068680763245,-0.013815201818943024,0.0007750391960144043,0.011365950107574463,0.9325511051387024,0.30413106128434647,0.02916938697718653,0.19235900683075458
1714155406692566500,4.47256640625,-0.015863310545682907,-0.0314113013446331,-0.01844296045601368,-0.06287436187267303,-0.5784109234809875,-0.8133189082145691,-0.014777608215808868,0.0009267926216125488,0.010203063488006592,0.9325772758055608,0.3041385954137234,0.02898716238183054,0.19224771688780312
1714155406702556700,4.482556640625,-0.013846765272319317,-0.03577142953872681,-0.025755202397704124,-0.06317808479070663,-0.5783522725105286,-0.8133370876312256,-0.01679322123527527,-0.0005813837051391602,0.012265920639038086,0.9326094411393978,0.3041432516259754,0.028781022717113306,0.19211505205924548
1714155406712545500,4.492545654296875,-0.003835995215922594,-0.03784656524658203,-0.02164427936077118,-0.06348931789398193,-0.5783823132514954,-0.8132914900779724,-0.01645147055387497,-0.0007954835891723633,0.009931504726409912,0.9326259389135501,0.3041997156642094,0.028579750565739616,0.19197543997417765
1714155406722535700,4.50253564453125,0.0027095216792076826,-0.039978425949811935,-0.020951326936483383,-0.06382762640714645,-0.5784759521484375,-0.813198447227478,-0.01576220989227295,-0.00018310546875,0.007000327110290527,0.9326295138326033,0.3042955289935127,0.028372880266508412,0.19183719004184635
1714155406732523800,4.512523681640625,0.006252591032534838,-0.04456146061420441,-0.023853637278079987,-0.06416277587413788,-0.578644871711731,-0.8130518198013306,-0.013794377446174622,0.001877903938293457,0.006304383277893066,0.9326226764168284,0.3044347523103964,0.02817043779023567,0.19167908685960433
1714155406742513700,4.522513671875,0.006705594714730978,-0.0490342378616333,-0.026331443339586258,-0.06450167298316956,-0.5788397789001465,-0.8128862380981445,-0.010083280503749847,0.0021796226501464844,0.004033088684082031,0.9326139578421643,0.30458968682336984,0.02796416398889134,0.1915055250238169
1714155406752502800,4.532502685546875,0.009452485479414463,-0.044609129428863525,-0.02069219946861267,-0.06485413759946823,-0.5790067315101624,-0.8127393126487732,-0.007289417088031769,0.0040555596351623535,0.0036877989768981934,0.932609152024925,0.30472991967387775,0.027749131358357163,0.19133717360266442
1714155406762492700,4.54249267578125,-0.0005285097286105156,-0.041182707995176315,-0.01091120857745409,-0.0652126669883728,-0.5790607333183289,-0.8126721382141113,-0.007083475589752197,0.0038654208183288574,0.004902362823486328,0.9326174822623168,0.3048048950443535,0.027530116923782405,0.19120887450133214
1714155406772482600,4.552482666015625,-0.0033303149975836277,-0.03776826709508896,-0.0052994629368186,-0.06557013839483261,-0.5790761113166809,-0.8126324415206909,-0.007153250277042389,0.004964172840118408,0.005625605583190918,0.9326249742181653,0.30485637023350926,0.027319855452647267,0.19112032749027244
1714155406782471700,4.5624716796875,-0.006209458690136671,-0.03843938559293747,-0.0001853944268077612,-0.0659787505865097,-0.5790942907333374,-0.8125863671302795,-0.0035250261425971985,0.005409598350524902,0.005610048770904541,0.9326239715208436,0.30491425072145995,0.02709448016223452,0.1910646565619602
1714155406792461600,4.572461669921875,0.0003031422384083271,-0.04013315588235855,0.007254478521645069,-0.06642104685306549,-0.5790977478027344,-0.8125478625297546,0.0024562031030654907,0.00783926248550415,0.004884898662567139,0.9326208664208614,0.30496683627075755,0.026856768679778178,0.1910296383560559
1714155406802450700,4.58245068359375,-0.003668163437396288,-0.04210043326020241,0.005490933544933796,-0.0668647289276123,-0.579097330570221,-0.8125118017196655,0.007492780685424805,0.008601784706115723,0.004360556602478027,0.9326160455714883,0.30501704543942953,0.026621604933869912,0.19100604772140894
1714155406812440600,4.592440673828125,-0.0025566131807863712,-0.04402749612927437,-0.000574349076487124,-0.06730640679597855,-0.5790658593177795,-0.8124977350234985,0.011978045105934143,0.007441163063049316,0.003400444984436035,0.9326204040481297,0.3050496779446669,0.026378403039867698,0.19096640853768276
1714155406822429700,4.6024296875,-0.007970553822815418,-0.045872531831264496,0.00020222854800522327,-0.06773390620946884,-0.5790145397186279,-0.8124987483024597,0.014480739831924438,0.004093945026397705,0.006117582321166992,0.9326325946105771,0.3050698990435118,0.02613378927569463,0.19090764899771528
1714155406832419600,4.612419677734375,-0.013970442116260529,-0.038407426327466965,-0.006192354019731283,-0.06808798760175705,-0.5789175629615784,-0.8125383257865906,0.013339459896087646,0.0034018754959106445,0.007103145122528076,0.932657833917772,0.3050559682862857,0.025917134872954703,0.19083649192244784
1714155406842409700,4.62240966796875,-0.0058387466706335545,-0.03309042379260063,0.0013635666109621525,-0.06838542968034744,-0.5788180232048035,-0.8125842809677124,0.011134453117847443,0.0013949275016784668,0.006554007530212402,0.9326826642942462,0.30503394371298875,0.02573253462976607,0.19077550039779198
1714155406852398600,4.632398681640625,-0.0003850185312330723,-0.03043818473815918,-0.0007475210586562753,-0.06868022680282593,-0.5787846446037292,-0.8125830888748169,0.011291928589344025,-0.00045412778854370117,0.00459975004196167,0.9326912286986446,0.3050491355742456,0.025562995124925925,0.19073154663694447
1714155406862388700,4.642388671875,0.004313330166041851,-0.028902072459459305,-0.008015819825232029,-0.0688997209072113,-0.5787916779518127,-0.8125595450401306,0.012198060750961304,0.004283010959625244,0.0008835196495056152,0.932698012314298,0.3050795273733352,0.025430427740208195,0.19066755840413757
1714155406872377600,4.652377685546875,0.0025798785500228405,-0.018143700435757637,-0.013042003847658634,-0.06900633126497269,-0.5788091421127319,-0.8125380277633667,0.010839834809303284,0.005170226097106934,-0.0012131929397583008,0.9327091948229459,0.30510376884910145,0.02535082654147435,0.1905847109729464
1714155406882367500,4.662367431640625,-0.004666316322982311,-0.01120856311172247,-0.0158790685236454,-0.06900163739919662,-0.5787508487701416,-0.8125799894332886,0.009522877633571625,0.00039696693420410156,-0.0030785799026489258,0.9327384471013167,0.3050722113892612,0.02531720774748208,0.19049637367711092
1714155406892356600,4.672356689453125,-0.009778573177754879,-0.010171794332563877,-0.013643546029925346,-0.06891105324029922,-0.5786581635475159,-0.812653660774231,0.008730396628379822,-0.004639565944671631,-0.005141139030456543,0.93277828499975,0.305011591448248,0.02532007155865103,0.19039780956131883
1714155406902346500,4.682346435546875,-0.010519997216761112,0.0034902221523225307,-0.022068722173571587,-0.06873650848865509,-0.5785900354385376,-0.8127169609069824,0.007731877267360687,-0.0038532018661499023,-0.006741046905517578,0.9328163974330104,0.3049557671364891,0.02536737247905754,0.19029433819312686
1714155406912337000,4.6923369140625,-0.012843126431107521,0.01679723896086216,-0.0316743440926075,-0.06839768588542938,-0.5785542726516724,-0.8127709627151489,0.004707507789134979,0.0005361437797546387,-0.005786716938018799,0.9328557951424038,0.3049006790791698,0.025496694563613198,0.19017203492511808
1714155406922325500,4.702325439453125,0.2969653308391571,-0.1793573647737503,0.05002398043870926,-0.06851329654455185,-0.5791012048721313,-0.8123716711997986,0.005494505167007446,-0.001999199390411377,-0.006506502628326416,0.9327744650246015,0.3052307445645537,0.025463054046378157,0.19004616841971675
1714155406932316000,4.71231591796875,0.19396065175533295,0.4303986728191376,0.3000534474849701,-0.06832582503557205,-0.5818981528282166,-0.8103864192962646,0.001797512173652649,0.00026363134384155273,0.0031049251556396484,0.9320288607131816,0.30678654120398546,0.02624492380353565,0.1910903270709852
1714155406942304500,4.722304443359375,-0.03597800433635712,0.26735782623291016,0.4145451486110687,-0.0674150362610817,-0.5817321538925171,-0.8105818629264832,-0.09657115489244461,-0.0007720589637756348,0.053883254528045654,0.9316201193801339,0.30652379461155355,0.02742695230727025,0.1933260036433952
1714155406952295000,4.732294921875,0.05634633079171181,-0.013270914554595947,0.3072686493396759,-0.06862886995077133,-0.5817327499389648,-0.8104795813560486,-0.11700955778360367,-0.07540225982666016,0.05320107936859131,0.931179632780381,0.30660453425484535,0.027456793473333515,0.19530579166947845
1714155406962283500,4.742283447265625,0.014633771032094955,-0.05835849791765213,-0.044188469648361206,-0.06987270712852478,-0.581816554069519,-0.8103131055831909,0.10730251669883728,-0.024293065071105957,0.03208434581756592,0.9310144132469517,0.30677905344754264,0.027019362162894998,0.19587963581429857
1714155406972274000,4.75227392578125,0.01636248268187046,0.005789595190435648,-0.27325788140296936,-0.06901871412992477,-0.5820794105529785,-0.8101974725723267,0.11404740065336227,0.02589660882949829,0.01335299015045166,0.9311635200083742,0.30685672869640834,0.027206960565074163,0.19502093351054317
1714155406982263800,4.762263916015625,0.006908527575433254,-0.05096929147839546,-0.2621157467365265,-0.06754254549741745,-0.582348108291626,-0.8101288080215454,0.00437115877866745,0.016796350479125977,0.00484621524810791,0.9314196818362735,0.30688086283890814,0.02756338241225837,0.19370497573872203
1714155406992253000,4.7722529296875,-0.006969630252569914,-0.11445612460374832,-0.22884200513362885,-0.06684764474630356,-0.5825168490409851,-0.8100651502609253,-0.010987430810928345,0.013165652751922607,-0.010949254035949707,0.9316611548981192,0.30693573469126556,0.02752973109504508,0.19245788778134298
1714155407002242800,4.782242919921875,-0.11737097054719925,-0.1553090214729309,-0.3083570897579193,-0.06641747057437897,-0.5822218656539917,-0.8103125691413879,0.013988271355628967,-0.004219174385070801,-0.018743276596069336,0.9320186930306747,0.3067593147863924,0.02724782905023742,0.19104300264563084
1714155407012232000,4.79223193359375,-0.3101719915866852,-0.19197487831115723,-0.4360160231590271,-0.0656881108880043,-0.5807422995567322,-0.811432957649231,0.0140371173620224,-0.027686595916748047,-0.022765040397644043,0.9327211240273252,0.30588509273578973,0.026792424826597525,0.18907072398674724
1714155407022221800,4.802221923828125,-0.4748797118663788,-0.09381529688835144,-0.3322654068470001,-0.06453093886375427,-0.577672004699707,-0.8137142062187195,0.02047882229089737,-0.0721539855003357,-0.009527981281280518,0.9337559071746595,0.3040555699703512,0.02632711293425548,0.18696769159751092
1714155407032211000,4.8122109375,-0.25194430351257324,-0.06262089312076569,0.007002943195402622,-0.06429777294397354,-0.5746340155601501,-0.8158808350563049,-0.006274126470088959,-0.11816078424453735,0.02025705575942993,0.9344941169312254,0.3023121229124592,0.02582573103368259,0.18617474015223934
1714155407042200800,4.822200927734375,0.023867590352892876,0.030960729345679283,0.047237977385520935,-0.06470650434494019,-0.5737565755844116,-0.8164658546447754,-0.050802528858184814,-0.012470841407775879,0.01556253433227539,0.9346090340830585,0.30184892451601336,0.025579194473888643,0.18638396012955438
1714155407052190700,4.832190673828125,0.07377342134714127,0.10132703185081482,-0.04197032377123833,-0.06415679305791855,-0.5742624402046204,-0.8161535263061523,-0.07619354128837585,0.11128032207489014,-0.006661415100097656,0.9345033038468495,0.302075253708165,0.025957261440633622,0.18649506445805064
1714155407062179800,4.842179931640625,-0.03243211284279823,0.06807933002710342,-0.07128667086362839,-0.06309633702039719,-0.5745114684104919,-0.8160609006881714,-0.06370418518781662,0.05278301239013672,-0.002100050449371338,0.9345058211273446,0.3021059675648234,0.026486387283628583,0.18635796367971985
1714155407072169700,4.852169677734375,-0.11920817941427231,-0.021799953654408455,-0.08955049514770508,-0.062446363270282745,-0.5738879442214966,-0.8165494799613953,0.00978829339146614,-0.022471189498901367,0.0005399584770202637,0.9347005268631966,0.30168776351090043,0.02664139680884075,0.1860364154083899
1714155407082158800,4.862158935546875,-0.10096898674964905,-0.044065579771995544,-0.09216305613517761,-0.06223907694220543,-0.573006808757782,-0.8171838521957397,0.04397431015968323,-0.04712557792663574,-0.001984238624572754,0.9349635784637111,0.3011748254002389,0.026491365356241258,0.18556664157705427
1714155407092148700,4.872148681640625,-0.04340103268623352,0.00005927146412432194,-0.07951623201370239,-0.061946235597133636,-0.5724754929542542,-0.8175784349441528,0.014643996953964233,-0.020252108573913574,-0.012453913688659668,0.9351541254535495,0.3008516036356466,0.02644045687589062,0.1851378563370308
1714155407102139000,4.882138916015625,-0.019729262217879295,0.05194537341594696,-0.06961274147033691,-0.06127975508570671,-0.5723369717597961,-0.8177255988121033,-0.02174331620335579,0.016718685626983643,-0.01580101251602173,0.9352541676249714,0.3007092554087388,0.026667039883744904,0.18483081606198043
1714155407112127700,4.892127685546875,-0.023722831159830093,0.04563714191317558,-0.06263119727373123,-0.06048277020454407,-0.5723316073417664,-0.8177887201309204,-0.031497206538915634,0.017934024333953857,-0.00658261775970459,0.9353171166129332,0.30062707065753813,0.027000145646445116,0.18459775699427233
1714155407122117600,4.90211767578125,-0.031203383579850197,0.01385471224784851,-0.06064048036932945,-0.05997726321220398,-0.5721666812896729,-0.8179413080215454,-0.010747220367193222,-0.001380622386932373,0.00730288028717041,0.9354027243794979,0.30048510647210563,0.02716682460957054,0.1843703783955094
1714155407132106800,4.912106689453125,-0.028570156544446945,-0.005839896388351917,-0.07566830515861511,-0.0596807487308979,-0.5718401670455933,-0.8181912899017334,0.013644985854625702,-0.005186140537261963,0.0166013240814209,0.9355269586425696,0.300275241849433,0.027186765104545752,0.18407886759265046
1714155407142096600,4.9220966796875,-0.03388236463069916,0.004058274440467358,-0.0777042880654335,-0.05933532863855362,-0.571567952632904,-0.8184065818786621,0.014550786465406418,0.0010418891906738281,0.02458333969116211,0.9356534000636894,0.30009300254279414,0.02721923253844721,0.18372781531778
1714155407152085800,4.932085693359375,-0.03965753689408302,0.01763586886227131,-0.05629207193851471,-0.058850571513175964,-0.5713334679603577,-0.818605363368988,0.005505848675966263,-0.000825345516204834,0.03097712993621826,0.9357651598526872,0.29991600236306837,0.02734450749003875,0.18342910505132493
1714155407162075600,4.94207568359375,-0.048039037734270096,0.00660079438239336,-0.04403780400753021,-0.058422401547431946,-0.5710480809211731,-0.8188350796699524,0.006374672055244446,-0.009533524513244629,0.030718624591827393,0.9358684214077285,0.29971367200995463,0.02746214810625442,0.18321539119285868
1714155407172065800,4.952065673828125,-0.04538685083389282,-0.010421864688396454,-0.03868125379085541,-0.05821201577782631,-0.5706977844238281,-0.8190942406654358,0.015365343540906906,-0.0059470534324646,0.030001163482666016,0.9359737885901854,0.29949674648053204,0.0274697631925757,0.18303032597662772
1714155407182054700,4.9620546875,-0.03304522484540939,-0.014984125271439552,-0.044810518622398376,-0.0581078827381134,-0.5703721046447754,-0.8193284273147583,0.023577246814966202,0.001875460147857666,0.026725947856903076,0.9360756709830609,0.2993056843280893,0.027420659186664278,0.18282898150735388
1714155407192044800,4.972044921875,-0.02091442234814167,-0.021254006773233414,-0.03814249858260155,-0.05811705067753792,-0.5701326131820679,-0.8194945454597473,0.022579334676265717,0.005023360252380371,0.02004075050354004,0.9361603636784359,0.2991759270929035,0.027322129419087102,0.18262304736222607
1714155407202033700,4.98203369140625,-0.015263993293046951,-0.018561018630862236,-0.030112268403172493,-0.05809717997908592,-0.570034384727478,-0.8195642232894897,0.01962977647781372,0.010555624961853027,0.015746474266052246,0.936216518770271,0.2991234138384988,0.02725921420940752,0.1824301103774148
1714155407212023800,4.99202392578125,-0.004584824200719595,-0.01606110855937004,-0.030439436435699463,-0.0579976886510849,-0.570059597492218,-0.8195537328720093,0.014861099421977997,0.015906155109405518,0.013126730918884277,0.9362480825537886,0.2991324201781587,0.027256796207546636,0.18225362634802053
1714155407222013700,5.002013671875,-0.008913792669773102,-0.01442672684788704,-0.03173719719052315,-0.05786043405532837,-0.5701510310173035,-0.8194998502731323,0.01432710886001587,0.019186735153198242,0.012874484062194824,0.9362701983978805,0.29917553832974414,0.0272779289072485,0.18206611613758095
1714155407232002800,5.0120029296875,-0.02611381746828556,-0.015662966296076775,-0.032082073390483856,-0.057800181210041046,-0.5701777338981628,-0.8194854855537415,0.014800913631916046,0.015902280807495117,0.014401257038116455,0.936300262077786,0.299189489778076,0.027256220513765757,0.1818917373290953
1714155407241992700,5.02199267578125,-0.04572533443570137,-0.015282399952411652,-0.019620077684521675,-0.057773489505052567,-0.5700427293777466,-0.8195813298225403,0.014179132878780365,0.011464238166809082,0.015168488025665283,0.9363536176853853,0.2991137508859888,0.027208507454479072,0.18174867967819247
1714155407251981800,5.03198193359375,-0.059154488146305084,-0.006505154073238373,-0.010993434116244316,-0.05770742520689964,-0.5697221755981445,-0.819808840751648,0.012846589088439941,0.010136604309082031,0.01803576946258545,0.9364332109035988,0.2989266280991172,0.027174245304463197,0.18165185907605644
1714155407261971700,5.0419716796875,-0.05894862115383148,-0.004037735052406788,-0.005247930064797401,-0.05761493369936943,-0.5692928433418274,-0.820113480091095,0.010938301682472229,0.008684933185577393,0.01823359727859497,0.9365243000091418,0.29867343366195725,0.027155604922699764,0.18160085593802627
1714155407271963100,5.051963134765625,-0.049373917281627655,-0.010136640630662441,-0.0011433999752625823,-0.05759201943874359,-0.5688784718513489,-0.8204026222229004,0.014989476650953293,0.011596977710723877,0.01376199722290039,0.954044717056322,0.2981403480165198,-0.030183081723859737,0
1714155407281953000,5.061953125,-0.03889251500368118,-0.0071656182408332825,0.008181125856935978,-0.05763588473200798,-0.5685217380523682,-0.8206467628479004,0.01904640719294548,0.017572641372680664,0.005018770694732666,0.9541086783994418,0.29793333837193986,-0.030204894052524495,-0.0000027165126670058992
1714155407291943200,5.071943115234375,-0.019793443381786346,0.002423093421384692,0.015112935565412045,-0.05766943842172623,-0.568265438079834,-0.8208219408988953,0.01706579700112343,0.02306884527206421,-0.00007039308547973633,0.9541546130817327,0.2977858434261571,-0.030209516283099213,0.00003415239148008009
1714155407301932000,5.08193212890625,-0.008336525410413742,0.008466338738799095,0.02233383059501648,-0.05769742280244827,-0.568123459815979,-0.8209182620048523,0.014896519482135773,0.024345993995666504,-0.003346264362335205,0.9541798507836456,0.2977065522950964,-0.03019409691338752,0.00012801927155230153
1714155407311922200,5.091922119140625,-0.009323439560830593,0.004705422557890415,0.029322698712348938,-0.05774999409914017,-0.5680227279663086,-0.8209842443466187,0.015345819294452667,0.022093772888183594,-0.006423532962799072,0.9541971029501817,0.29765219834631096,-0.030183482877692836,0.0002486280363571125
1714155407321911000,5.1019111328125,-0.012529352679848671,0.01243711169809103,0.03714226931333542,-0.057827651500701904,-0.5679261088371277,-0.8210456371307373,0.016384776681661606,0.021615684032440186,-0.007964372634887695,0.9542131456845842,0.2976015127545882,-0.030175036746654105,0.0004045954347613734
1714155407331901200,5.111901123046875,-0.019741833209991455,0.01770271360874176,0.04449412599205971,-0.05790151655673981,-0.5678083300590515,-0.821121871471405,0.01604665443301201,0.018232524394989014,-0.005828142166137695,0.9542330336010647,0.2975403018984723,-0.030146642295179264,0.0006178509645688168
1714155407341891000,5.12189111328125,-0.03675463795661926,0.018257983028888702,0.04773998633027077,-0.057959090918302536,-0.5675755143165588,-0.8212787508964539,0.014441024512052536,0.010797560214996338,-0.0034435391426086426,0.9542738503927137,0.29741310818602607,-0.030101078189081584,0.0008569687269862208
1714155407351880200,5.131880126953125,-0.0581563338637352,0.020515544340014458,0.050394292920827866,-0.05799390748143196,-0.5671570301055908,-0.8215653300285339,0.01649000123143196,0.00618290901184082,-0.0038741230964660645,0.9543486448247211,0.29717820612875534,-0.03004076156836635,0.001102347469802381
1714155407361870000,5.1418701171875,-0.06701347231864929,0.02739369124174118,0.05656643584370613,-0.05800596624612808,-0.566541314125061,-0.8219892382621765,0.015769638121128082,0.0036750435829162598,-0.006181538105010986,0.954459383625814,0.2968295242446761,-0.02996043490308358,0.0013710412317746584
1714155407371859200,5.151859130859375,-0.055405713617801666,0.030117304995656013,0.06655415892601013,-0.05802815780043602,-0.5658760666847229,-0.822445809841156,0.01579182595014572,0.0044289231300354,-0.006457388401031494,0.9545785351274647,0.29645393962813943,-0.029869181111827604,0.001691997275876475
1714155407381849000,5.16184912109375,-0.025248076766729355,0.0336633026599884,0.06826097518205643,-0.05804487317800522,-0.5653314590454102,-0.8228189945220947,0.014709915965795517,0.011223793029785156,-0.010570228099822998,0.9546754919569924,0.29614934960019523,-0.02976671314999015,0.002042502530485532
1714155407391838000,5.171837890625,-0.003932029474526644,0.03809560462832451,0.07007258385419846,-0.058033645153045654,-0.5650243759155273,-0.8230307102203369,0.015049632638692856,0.020056724548339844,-0.014966726303100586,0.9547301656051599,0.2959825411850429,-0.029647368835858168,0.00240414302609597
1714155407401828000,5.181828125,0.016697082668542862,0.03696376085281372,0.07003903388977051,-0.05800115689635277,-0.5648912191390991,-0.8231244683265686,0.01509343832731247,0.02422654628753662,-0.013453900814056396,0.954753733382138,0.29591660777138806,-0.029515048327199603,0.002774346709158493
1714155407411818000,5.19181787109375,0.009231922216713428,0.036814890801906586,0.07294294983148575,-0.057983919978141785,-0.5648533701896667,-0.8231515884399414,0.013901278376579285,0.019504249095916748,-0.013396263122558594,0.9547595604909616,0.29590659138415704,-0.029385287837816493,0.0031634146812493935
1714155407421807000,5.20180712890625,-0.0060154739767313,0.03798188641667366,0.07051627337932587,-0.0579775869846344,-0.5647755861282349,-0.8232054114341736,0.0134371817111969,0.011385083198547363,-0.012442171573638916,0.954772261259121,0.295873381849559,-0.029261531731039795,0.0035511631162490898
1714155407431797000,5.211796875,-0.030383504927158356,0.03322121873497963,0.07695865631103516,-0.05799255892634392,-0.5645484924316406,-0.8233600854873657,0.011788945645093918,0.000293731689453125,-0.009495139122009277,0.9548112729659224,0.2957538697989096,-0.02914780357898953,0.003941211343999038
1714155407441786000,5.2217861328125,-0.04839632660150528,0.03003794327378273,0.07230585068464279,-0.05804242193698883,-0.5641577243804932,-0.8236244320869446,0.007871519774198532,-0.009084522724151611,-0.00874251127243042,0.9548788842024469,0.2955395394204357,-0.029054452355411434,0.004323371026021414
1714155407451776000,5.23177587890625,-0.055703505873680115,0.030240077525377274,0.07169365882873535,-0.05808704346418381,-0.563644528388977,-0.8239725828170776,0.002194095402956009,-0.01194751262664795,-0.007204174995422363,0.9549683165746868,0.2952538104150069,-0.028963874088903264,0.004687287655979339
1714155407461766000,5.241765869140625,-0.04170193895697594,0.038608260452747345,0.06776949018239975,-0.05809681862592697,-0.5631051659584045,-0.8243405818939209,-0.004342149943113327,-0.007771909236907959,-0.008316278457641602,0.9550627748291426,0.29495264613435496,-0.028855594064470177,0.005049980972742965
1714155407471755000,5.251755126953125,-0.030171357095241547,0.039813343435525894,0.06003260612487793,-0.058049049228429794,-0.5625954866409302,-0.8246918320655823,-0.013240013271570206,-0.0038717985153198242,-0.00952136516571045,0.9551528235628389,0.29466758847789903,-0.02872429072198386,0.005390609776209712
1714155407481745000,5.261744873046875,-0.01361554954200983,0.043069589883089066,0.053443145006895065,-0.057929255068302155,-0.5621971487998962,-0.8249718546867371,-0.021050237119197845,0.0024589896202087402,-0.011133432388305664,0.955224316606636,0.2944456563616406,-0.02856249908038125,0.005709150548206143
1714155407491734000,5.271734130859375,-0.005206724628806114,0.04837274178862572,0.04042408615350723,-0.0577002689242363,-0.5619475245475769,-0.8251579403877258,-0.026589278131723404,0.0013396739959716797,-0.011527180671691895,0.955271180094094,0.2943075988185897,-0.028356082656737114,0.005988245445101112
1714155407501724000,5.281723876953125,-0.004592600278556347,0.04647231101989746,0.03280530869960785,-0.05743144825100899,-0.5617766976356506,-0.8252930045127869,-0.02936054766178131,-0.004171788692474365,-0.01171255111694336,0.9553050502808746,0.29421341039689647,-0.02814166192369061,0.00622627067657229
1714155407511713000,5.291713134765625,-0.002281615510582924,0.045113034546375275,0.026064984500408173,-0.057152751833200455,-0.5617210268974304,-0.825350284576416,-0.029105182737112045,-0.00700455904006958,-0.008588314056396484,0.9553187248072635,0.2941844499725726,-0.0279353140150382,0.006421980716045564
1714155407521703000,5.301702880859375,-0.0028062579222023487,0.042997151613235474,0.010457263328135014,-0.0568438321352005,-0.5617363452911377,-0.8253611922264099,-0.031367234885692596,-0.009674787521362305,-0.006959974765777588,0.9553207511088241,0.29419427047687713,-0.02773320237249413,0.0065528523741220646
1714155407531693300,5.311693359375,-0.002225422766059637,0.04477587714791298,0.00008311890996992588,-0.05650079622864723,-0.561799943447113,-0.8253414630889893,-0.032824162393808365,-0.010206282138824463,-0.002875089645385742,0.9553149811160551,0.2942304620297392,-0.02752650136475179,0.006640776356582001
1714155407541682000,5.321681884765625,-0.01417422667145729,0.03822583332657814,-0.0015853516524657607,-0.05618785694241524,-0.5617662072181702,-0.8253857493400574,-0.03144336864352226,-0.012391507625579834,0.003226935863494873,0.9553260991973005,0.2942099548556448,-0.027342717576850074,0.006705130909225934
1714155407551672300,5.33167236328125,-0.022094788029789925,0.02877480536699295,0.0032139974646270275,-0.0560043528676033,-0.5615916848182678,-0.8255169987678528,-0.026194743812084198,-0.016518056392669678,0.012193024158477783,0.9553599972269545,0.2941093378722336,-0.027224825170310107,0.006775264152445434
1714155407561661000,5.341660888671875,-0.02357896789908409,0.03173091262578964,-0.0022241773549467325,-0.055894482880830765,-0.5613309741020203,-0.8257017135620117,-0.021742239594459534,-0.017267048358917236,0.01587200164794922,0.9554078391268765,0.2939594567130144,-0.02714726520549427,0.006839486472359796
1714155407571651300,5.3516513671875,-0.009915141388773918,0.021212760359048843,-0.0045180912129580975,-0.055844392627477646,-0.5611403584480286,-0.8258346319198608,-0.020205415785312653,-0.01193392276763916,0.01281583309173584,0.9554422440416713,0.2938501305949241,-0.027106770806207648,0.006885287076456692
1714155407581641200,5.36164111328125,0.010642066597938538,0.01409306563436985,-0.008451580069959164,-0.05586424842476845,-0.5611101984977722,-0.8258538246154785,-0.01788148283958435,-0.003266632556915283,0.008303165435791016,0.9554470620786997,0.2938334730030075,-0.02711074390019371,0.006906102674784018
1714155407591630300,5.37163037109375,0.020250219851732254,0.004906757269054651,-0.014037826098501682,-0.05592063441872597,-0.561258852481842,-0.8257489800453186,-0.014086693525314331,0.000361025333404541,0.008884966373443604,0.955419682893757,0.29391973188358417,-0.027142313871582044,0.0068998994397431734
1714155407601620200,5.3816201171875,0.02154238522052765,-0.00979841873049736,-0.013027955777943134,-0.05609111487865448,-0.5614640712738037,-0.825597882270813,-0.010757636278867722,-0.00028818845748901367,0.007070720195770264,0.95538036429361,0.29403919759874175,-0.027239897250082495,0.006873551876036499
1714155407611609300,5.391609375,0.016773195937275887,-0.019023342058062553,-0.010119250975549221,-0.056355804204940796,-0.5616745352745056,-0.8254367113113403,-0.009348548948764801,-0.0007644295692443848,0.005978703498840332,0.9553385870969962,0.2941617734615753,-0.027395308855907796,0.006819736369119048
1714155407621599200,5.40159912109375,0.015681564807891846,-0.020854532718658447,-0.013980035670101643,-0.056664712727069855,-0.5618799328804016,-0.825275719165802,-0.011175867170095444,-0.0018865466117858887,0.007618308067321777,0.9552968458876683,0.2942818523539409,-0.02757397891651976,0.006765692350232888
1714155407631589000,5.411589111328125,0.006669428665190935,-0.02195122092962265,-0.015655165538191795,-0.05693675950169563,-0.5621136426925659,-0.8250978589057922,-0.012673836201429367,-0.001225590705871582,0.009836018085479736,0.9552508061096547,0.2944174644249259,-0.027738816243186654,0.006694074505115194
1714155407641578200,5.421578125,0.004040888510644436,-0.03078838810324669,-0.010453744791448116,-0.057212457060813904,-0.5623273849487305,-0.8249331116676331,-0.013374701142311096,0.00017833709716796875,0.009534001350402832,0.9552082585368891,0.2945410579412961,-0.027910826025889592,0.006605452413373694
1714155407651568000,5.431568115234375,0.007442277856171131,-0.034191910177469254,-0.009329890832304955,-0.05754980072379112,-0.5624943971633911,-0.8247957825660706,-0.011725101619958878,0.0006352663040161133,0.006817877292633057,0.9551729085112226,0.2946384269985858,-0.028112622536112845,0.006524893498011802
1714155407661557200,5.44155712890625,0.004398018587380648,-0.033661406487226486,-0.005199594423174858,-0.05789819359779358,-0.5626039505004883,-0.8246966600418091,-0.01210913434624672,0.0028963088989257812,0.004780888557434082,0.9551474879273054,0.2947030553071695,-0.028315453066365032,0.006459595386684128
1714155407671547100,5.451547119140625,0.0003345673903822899,-0.03749982267618179,-0.011273731477558613,-0.058225709944963455,-0.5626460313796997,-0.824644923210144,-0.012803953140974045,0.005211949348449707,0.004729151725769043,0.9551344797910954,0.2947282544743596,-0.028509366365324897,0.006387498024337149
1714155407681537000,5.461537109375,-0.0009195152670145035,-0.033110134303569794,-0.011341908946633339,-0.058502133935689926,-0.5626658797264099,-0.8246117830276489,-0.013549868017435074,0.004667222499847412,0.005123257637023926,0.955126349235304,0.2947394042916164,-0.02868436227059741,0.00628988339562421
1714155407691526100,5.471526123046875,0.00026825442910194397,-0.03573014959692955,-0.011738985776901245,-0.058772966265678406,-0.5626887679100037,-0.8245769143104553,-0.012897565960884094,0.0023250579833984375,0.0013347268104553223,0.9551179044211082,0.2947521742287493,-0.028856479414360175,0.00619212939368767
1714155407701516000,5.48151611328125,0.007401797920465469,-0.03182569146156311,-0.012836208567023277,-0.059045758098363876,-0.5627516508102417,-0.8245145082473755,-0.014577902853488922,0.0009840726852416992,0.0009366273880004883,0.9551021032835711,0.2947883267918229,-0.029027361440150112,0.006101955847628002
1714155407711505200,5.491505126953125,0.016220323741436005,-0.03127814456820488,-0.01729513891041279,-0.05930081754922867,-0.5629012584686279,-0.8243941068649292,-0.012659631669521332,0.0005996227264404297,0.0028609037399291992,0.9550712380452577,0.2948741119481267,-0.029192716602450146,0.006000138463903779
1714155407721495000,5.5014951171875,0.020314082503318787,-0.03192529082298279,-0.017071433365345,-0.05954398587346077,-0.5630995035171509,-0.8242411017417908,-0.01247749850153923,0.002537369728088379,0.002555370330810547,0.9550319033179714,0.2949875537851335,-0.029356083759562845,0.005884982410335915
1714155407731484200,5.511484130859375,0.013442592695355415,-0.03574772924184799,-0.01984584704041481,-0.059793949127197266,-0.5632679462432861,-0.8241079449653625,-0.010640621185302734,0.003880739212036133,0.004558444023132324,0.9549978639295484,0.2950833716439247,-0.029526641311169777,0.005758019470658238
1714155407741473800,5.521473876953125,-0.0031113498844206333,-0.03692378103733063,-0.022902091965079308,-0.060033440589904785,-0.563323438167572,-0.824052631855011,-0.007913947105407715,-0.0005193352699279785,0.005052387714385986,0.954984318918796,0.29511288946802244,-0.02969964325937115,0.005604726974544033
1714155407751464000,5.5314638671875,-0.018088115379214287,-0.037444692105054855,-0.02623310685157776,-0.0602538026869297,-0.5632444620132446,-0.8240905404090881,-0.008151348680257797,-0.004779219627380371,0.009179651737213135,0.9549952393561412,0.2950637726029936,-0.029868119882075186,0.005432689612161312
1714155407761452800,5.541452880859375,-0.027057643979787827,-0.036777570843696594,-0.025601405650377274,-0.06049053743481636,-0.5630576610565186,-0.8242008090019226,-0.008006170392036438,-0.011557817459106445,0.011670291423797607,0.9550249728273845,0.2949526514765773,-0.030042084492951416,0.0052697532483236414
1714155407771443000,5.55144287109375,-0.028004981577396393,-0.03914911672472954,-0.03086734004318714,-0.060726698487997055,-0.562826931476593,-0.8243409991264343,-0.007846303284168243,-0.013222873210906982,0.010742366313934326,0.9550626007224643,0.2948155732834932,-0.030220405309211756,0.00509121672075856
1714155407781431800,5.561431884765625,-0.021936170756816864,-0.036367710679769516,-0.03508844971656799,-0.06092958524823189,-0.562629759311676,-0.8244606852531433,-0.007002547383308411,-0.01041412353515625,0.01073998212814331,0.955095017359675,0.2946968848545718,-0.030387659064491274,0.004892115555230142
1714155407791422000,5.571421875,-0.005132049787789583,-0.03286032751202583,-0.03631550073623657,-0.06108468398451805,-0.5625305771827698,-0.8245168328285217,-0.007915563881397247,-0.008438050746917725,0.010445237159729004,0.9551108162672933,0.29463400958687636,-0.030534727553024242,0.004677982433688735
1714155407801411800,5.581411865234375,0.00862770527601242,-0.028663719072937965,-0.03757357597351074,-0.06119963899254799,-0.5625571012496948,-0.8244902491569519,-0.00728181004524231,-0.007373988628387451,0.008083999156951904,0.955104834332222,0.2946434543536918,-0.030661363959080846,0.004463030099668225
1714155407811401000,5.59140087890625,0.019317738711833954,-0.03622176870703697,-0.0520424023270607,-0.06128067523241043,-0.5627042651176453,-0.8243837356567383,-0.0036149509251117706,-0.004556417465209961,0.005230963230133057,0.9550780376161963,0.29472129732414815,-0.03078126064212874,0.004213581012577544
1714155407821390800,5.601390869140625,0.027996715158224106,-0.03863086551427841,-0.05657243728637695,-0.06134648248553276,-0.5629560947418213,-0.8242069482803345,0.0005402080714702606,-0.002702474594116211,0.005298256874084473,0.9550331442264908,0.2948575711905466,-0.03091175568563099,0.003905243141467299
1714155407831380000,5.6113798828125,0.019195500761270523,-0.03205978125333786,-0.05529698356986046,-0.061361223459243774,-0.5632649660110474,-0.8239948153495789,0.00024976953864097595,-0.003919482231140137,0.008000552654266357,0.9549788696317993,0.29502639718752305,-0.03101642045711483,0.0035948842017152066
1714155407841369900,5.621369873046875,0.0020372862927615643,-0.034682195633649826,-0.05747358500957489,-0.06136253848671913,-0.5635098218917847,-0.8238272666931152,0.001044541597366333,-0.009015262126922607,0.010167598724365234,0.9549361087734215,0.295158124402796,-0.031113378231693602,0.003286307899699359
1714155407851360000,5.631360107421875,-0.011809234507381916,-0.04046977683901787,-0.06093955785036087,-0.06139867752790451,-0.5636135935783386,-0.8237535357475281,0.001355338841676712,-0.011398613452911377,0.012245357036590576,0.9549177771426938,0.2952078227486046,-0.03123420007705725,0.002958069088087531
1714155407861348900,5.641348876953125,-0.022359345108270645,-0.03246831148862839,-0.06415771692991257,-0.06140033155679703,-0.5636022090911865,-0.8237612247467041,0.0007466413080692291,-0.011257410049438477,0.014480829238891602,0.9549208744364046,0.29518990719170174,-0.0313416932566904,0.0026129917498642213
1714155407871339000,5.651339111328125,-0.024229899048805237,-0.027889272198081017,-0.06198517978191376,-0.061331238597631454,-0.5635353922843933,-0.8238120675086975,0.001471005380153656,-0.007921576499938965,0.015462517738342285,0.9549350112640278,0.29513938048651406,-0.03141180585890643,0.0022680312133435826
1714155407881327900,5.661327880859375,-0.026211289688944817,-0.04005725681781769,-0.062152422964572906,-0.06131064519286156,-0.5634297132492065,-0.8238859176635742,0.006607886403799057,-0.007294774055480957,0.014086723327636719,0.9549551789017394,0.2950666130313125,-0.03150771765058904,0.0019211427567324274
1714155407891318000,5.671318115234375,-0.02305762656033039,-0.043703656643629074,-0.06572113186120987,-0.061331868171691895,-0.5632991194725037,-0.8239735960960388,0.009528275579214096,-0.005258619785308838,0.009123802185058594,0.9549787376936307,0.29497928576103793,-0.031629335359810086,0.0015614333341366499
1714155407901308200,5.68130810546875,-0.013883570209145546,-0.04060293734073639,-0.06483855843544006,-0.06130661815404892,-0.563226580619812,-0.8240250945091248,0.00770249217748642,0.0038851499557495117,0.004719734191894531,0.9549928306072618,0.29492436486727025,-0.03173423536272677,0.001177732038379814
1714155407911297000,5.691297119140625,-0.0010203951969742775,-0.0315396673977375,-0.05371646583080292,-0.061266444623470306,-0.5632549524307251,-0.8240086436271667,0.0007195658981800079,0.006400704383850098,-0.0017969608306884766,0.9549888614566612,0.2949293997243639,-0.031816878036791583,0.0008424297189882357
1714155407921287200,5.701287109375,0.005731250625103712,-0.02772575430572033,-0.04313386231660843,-0.06123075261712074,-0.5633962154388428,-0.8239147663116455,-0.0020321905612945557,0.0062825679779052734,-0.004881620407104492,0.9549644778296749,0.29500190353521905,-0.031882488672366024,0.0005719692033155227
1714155407931276000,5.711276123046875,0.010019099339842796,-0.029511403292417526,-0.03288448601961136,-0.061237506568431854,-0.5635973811149597,-0.8237766623497009,0.00014131143689155579,0.006804168224334717,-0.0026240944862365723,0.9549283973555467,0.2951110023354634,-0.031955752661398065,0.0003500273050402736
1714155407941266200,5.72126611328125,0.005834208335727453,-0.03536689653992653,-0.031118011102080345,-0.06131703034043312,-0.5638144612312317,-0.8236221671104431,0.006064951419830322,0.00784522294998169,-0.004808008670806885,0.9548879879998267,0.2952303704282725,-0.032061703267499395,0.00014625607793146422
1714155407951256000,5.731256103515625,0.0030431088525801897,-0.02863469161093235,-0.033482763916254044,-0.06138357147574425,-0.5639868974685669,-0.8234991431236267,0.0071080587804317474,0.008414387702941895,-0.004030764102935791,0.9548557588722854,0.2953236165688311,-0.03216214440271792,-0.0000623801624282938
1714155407961245200,5.7412451171875,-0.010462313890457153,-0.025576315820217133,-0.027188915759325027,-0.06139177456498146,-0.564068078994751,-0.8234429359436035,0.004415452480316162,0.0055048465728759766,0.0006737709045410156,0.9548410992565518,0.295364215473297,-0.03222595968708505,-0.0002531925065513696
1714155407971235000,5.751235107421875,-0.02550283446907997,-0.025461800396442413,-0.025081157684326172,-0.06137809157371521,-0.5640106201171875,-0.8234833478927612,0.00379142165184021,0.0008391737937927246,0.0034149885177612305,0.9548515810125869,0.29532489305370313,-0.032272934450782186,-0.00042941652639405525
1714155407981224000,5.761223876953125,-0.03773420304059982,-0.02526845596730709,-0.02790037915110588,-0.06139487773180008,-0.5637494921684265,-0.8236608505249023,0.004952616989612579,-0.0033586621284484863,0.004706382751464844,0.9548980051143713,0.2951677689851958,-0.03233513655936101,-0.000607511297790686
1714155407991214000,5.771214111328125,-0.03409291431307793,-0.022655362263321877,-0.026630716398358345,-0.06142301857471466,-0.5634140372276306,-0.8238882422447205,0.004629801958799362,-0.00488436222076416,0.005300045013427734,0.9549573558533256,0.2949677087953369,-0.032402444307079135,-0.0007846382082436626
1714155408001204000,5.781203857421875,-0.02298380434513092,-0.01900123804807663,-0.03170830011367798,-0.06143534556031227,-0.5631462931632996,-0.824070394039154,0.0030552148818969727,-0.0042822957038879395,0.004978597164154053,0.9550048680398397,0.2948070349304738,-0.03245963110400379,-0.0009546364495964799
1714155408011193000,5.791193115234375,-0.008166402578353882,-0.01888112910091877,-0.031077662482857704,-0.0614425428211689,-0.5629701018333435,-0.8241902589797974,0.001918002963066101,-0.0016661882400512695,0.0038472414016723633,0.9550360837836029,0.2946991286156956,-0.032516261711427415,-0.0011297367910072242
1714155408021183000,5.801182861328125,0.0029658772982656956,-0.013743892312049866,-0.03346678614616394,-0.06135081872344017,-0.5629147291183472,-0.8242348432540894,-0.0008897855877876282,0.002520442008972168,0.0031136274337768555,0.9550475584703964,0.2946603358178173,-0.03252472195372889,-0.001314215460185661
1714155408031172000,5.811172119140625,0.01139499619603157,-0.00846870243549347,-0.035615887492895126,-0.061185624450445175,-0.5629419088363647,-0.8242285847663879,-0.0017416253685951233,0.0038293004035949707,0.0041449666023254395,0.9550455301778853,0.2946686628643361,-0.03249758564332152,-0.0015063063757989048
1714155408041162000,5.821161865234375,0.006936331279575825,-0.015657905489206314,-0.03574904799461365,-0.06106209009885788,-0.5630273818969727,-0.8241793513298035,-0.0006139390170574188,0.00022220611572265625,0.007315337657928467,0.9550323268659663,0.294711115697371,-0.03249137272968672,-0.0016940874804168143
1714155408051152000,5.83115185546875,-0.00028051622211933136,-0.017876585945487022,-0.041153132915496826,-0.06097172200679779,-0.5631124973297119,-0.8241278529167175,0.002042282372713089,-0.0018593668937683105,0.008469343185424805,0.9550184765164013,0.29475296183194255,-0.03250782295216816,-0.0018989110747946458
1714155408061141000,5.84114111328125,-0.013494854792952538,-0.009665527381002903,-0.039042580872774124,-0.06082408130168915,-0.5631296634674072,-0.8241270780563354,0.0016047172248363495,-0.002437412738800049,0.01206958293914795,0.9550177762183425,0.2947548213983437,-0.03249722531034767,-0.002114933726719212
1714155408071131000,5.851130859375,-0.02055974118411541,-0.010671935975551605,-0.02686474286019802,-0.06069531664252281,-0.5630663633346558,-0.8241797685623169,0.0019032023847103119,-0.007108867168426514,0.01283949613571167,0.9550311851373533,0.2947113046082249,-0.03248613802773487,-0.002299255480487414
1714155408081120000,5.8611201171875,-0.02754840813577175,-0.020292071625590324,-0.02083614468574524,-0.06068023666739464,-0.5629281401634216,-0.8242753148078918,0.005122985690832138,-0.010573387145996094,0.014735579490661621,0.9550558891201886,0.2946264975059845,-0.032520215808496185,-0.0024386963124486405
1714155408091110000,5.87110986328125,-0.025776289403438568,-0.022225527092814445,-0.022907817736268044,-0.06072132661938667,-0.5627511739730835,-0.8243931531906128,0.009863778948783875,-0.004845261573791504,0.015509486198425293,0.9550863825212519,0.29451924374637145,-0.03258577567619691,-0.0025858006340480216
1714155408101100000,5.88110009765625,-0.01140107773244381,-0.02851777896285057,-0.019774075597524643,-0.06084047630429268,-0.5626074075698853,-0.8244825005531311,0.01196657121181488,0.0005956292152404785,0.013035356998443604,0.9551093570925201,0.2944317493216617,-0.03269097176379099,-0.0027280193480019588
1714155408111089000,5.8910888671875,0.001888468861579895,-0.02592146210372448,-0.01213233545422554,-0.061004769057035446,-0.562578558921814,-0.8244900107383728,0.009796269237995148,0.0037253499031066895,0.006985187530517578,0.9551109969607822,0.2944118879496366,-0.032811887597380324,-0.0028416329759079068
1714155408121079000,5.9010791015625,0.011870529502630234,-0.022266274318099022,-0.008700053207576275,-0.06116979196667671,-0.562659502029419,-0.8244225382804871,0.007123157382011414,0.008155107498168945,0.0061089396476745605,0.9550930527342587,0.2944566892235003,-0.0329239651832402,-0.0029225174106034812
1714155408131068000,5.91106787109375,0.015464678406715393,-0.025706011801958084,-0.006315524689853191,-0.061309799551963806,-0.5628289580345154,-0.8242964744567871,0.009948711842298508,0.009758949279785156,0.007249355316162109,0.9550598547682742,0.29455277413514025,-0.03302162235710653,-0.002996836768525024
1714155408141058000,5.92105810546875,0.009887486696243286,-0.02874707616865635,-0.0036222701892256737,-0.061513181775808334,-0.5630154013633728,-0.8241539597511292,0.011433832347393036,0.008297383785247803,0.006023526191711426,0.9550223288896619,0.29465930556018805,-0.0331497028346409,-0.0030615556829171747
1714155408151048000,5.9310478515625,-0.002647693268954754,-0.02845839038491249,-0.0007279467536136508,-0.06172221526503563,-0.5631500482559204,-0.8240463733673096,0.01187174767255783,0.00802004337310791,0.00477147102355957,0.9549940142961001,0.29473608886826896,-0.033278282739076716,-0.003119583584046723
1714155408161037000,5.941037109375,-0.014677724801003933,-0.026327861472964287,-0.0026659290306270123,-0.06189665570855141,-0.5631916522979736,-0.8240048289299011,0.009436938911676407,0.004674196243286133,0.003387153148651123,0.9549829500621397,0.29475909790419097,-0.03338642659176712,-0.0031725568975980167
1714155408171027000,5.95102685546875,-0.015937931835651398,-0.01624406687915325,-0.0009064452024176717,-0.06199643015861511,-0.5631439089775085,-0.8240299224853516,0.005279514938592911,0.00447392463684082,0.003122389316558838,0.9549893127854338,0.29473015829154126,-0.033453851303351954,-0.0032227939777866033
1714155408181016000,5.96101611328125,-0.029526978731155396,-0.013092216104269028,0.003153010969981551,-0.062052514404058456,-0.5629866719245911,-0.8241332173347473,0.002863667905330658,0.0034773945808410645,0.00012809038162231445,0.9550162387251739,0.2946383381267404,-0.03349108578245925,-0.003252374469572314
1714155408191006000,5.971005859375,-0.035631369799375534,-0.01347438059747219,0.00554499588906765,-0.062129393219947815,-0.5627081394195557,-0.8243175745010376,0.0025438256561756134,0.0026801228523254395,-0.004371941089630127,0.9550644658722998,0.29447684140073743,-0.0335349630403877,-0.0032714141348734738
1714155408200995800,5.980995849609375,-0.03835152089595795,-0.002076583681628108,0.0047963811084628105,-0.062178172171115875,-0.5623608231544495,-0.8245509266853333,0.0003800727427005768,0.002805769443511963,-0.004764258861541748,0.9551255670177704,0.29427600853182867,-0.033558454161472524,-0.0032739732897568985
1714155408210985000,5.99098486328125,-0.03501617908477783,0.0033397534862160683,0.005343461409211159,-0.062135953456163406,-0.5620560050010681,-0.8247619271278381,-0.003247961401939392,0.00047153234481811523,-0.004339635372161865,0.9551808330919388,0.2940998454398089,-0.03353096223123627,-0.0032647289356534243
1714155408220974800,6.000974853515625,-0.024925194680690765,0.0024332134053111076,-0.00387107627466321,-0.062042221426963806,-0.5617982149124146,-0.8249445557594299,-0.004455585032701492,0.0038453340530395508,-0.006476342678070068,0.9552284986511679,0.2939498989097036,-0.03348405431218438,-0.0032788328756361285
1714155408230965000,6.010965087890625,-0.02063574828207493,0.01624889299273491,-0.006984910927712917,-0.061873406171798706,-0.561613142490387,-0.8250832557678223,-0.005066901445388794,0.009183943271636963,-0.0035300254821777344,0.9552646957379289,0.2938412744165567,-0.03340197392641765,-0.003304582837497086
1714155408240953900,6.020953857421875,-0.020849334076046944,0.01541079767048359,-0.009748206473886967,-0.061631374061107635,-0.561467707157135,-0.8252003788948059,-0.0059955790638923645,0.00716167688369751,0.0017597675323486328,0.9552953049653021,0.293755259248092,-0.03328171131526247,-0.003329897126146189
1714155408250944000,6.030944091796875,-0.03155960887670517,0.011005662381649017,0.0005038983654230833,-0.06146158277988434,-0.5612541437149048,-0.8253582715988159,-0.00398336723446846,-0.0009712576866149902,0.002421259880065918,0.955336608064492,0.29363073272905904,-0.03319410524291425,-0.0033400906394752683
1714155408260932900,6.040932861328125,-0.030625373125076294,0.0127034280449152,0.006719183176755905,-0.06139016151428223,-0.5609678030014038,-0.8255582451820374,0.00047707557678222656,-0.005438446998596191,0.0050168633460998535,0.9553890510190755,0.2934659843533023,-0.03314518495334528,-0.0033103162888922233
1714155408270923000,6.050923095703125,-0.01795133575797081,0.010459181852638721,0.0034529496915638447,-0.06132541596889496,-0.5607461929321289,-0.825713574886322,0.00299106165766716,-0.0031270980834960938,0.0053247809410095215,0.9554297579096096,0.2933389795676488,-0.033097817781330335,-0.003272435147380237
1714155408280913000,6.060912841796875,-0.014949952252209187,0.004758952185511589,0.004166144412010908,-0.06129055097699165,-0.56058269739151,-0.8258271813392639,0.002956196665763855,0.0022941231727600098,-0.00023788213729858398,0.9554595711939646,0.29324537094211994,-0.03306918592555112,-0.0032430015174726434
1714155408290902000,6.070902099609375,-0.01660585217177868,0.0030002002604305744,0.0011161589063704014,-0.06130146607756615,-0.5604490637779236,-0.8259170651435852,0.00017475709319114685,0.004144191741943359,-0.0006667971611022949,0.9554831439922468,0.2931688947357222,-0.03306779716465315,-0.0032233644643061415
1714155408300892000,6.080891845703125,-0.016815708950161934,0.002963715000078082,0.001220022328197956,-0.06133537366986275,-0.5602793097496033,-0.8260297179222107,0.0008190125226974487,0.0025553107261657715,0.0019330382347106934,0.9555127809078849,0.29307128046805336,-0.03308111186115607,-0.003213344965713724
1714155408310881000,6.090881103515625,-0.01691259630024433,-0.001397743821144104,0.0020627130288630724,-0.06136798858642578,-0.560083270072937,-0.8261602520942688,0.0013551674783229828,-0.0026913881301879883,0.004657566547393799,0.9555469830533284,0.2929586864756603,-0.03309210994018323,-0.0031986497536889424
1714155408320871000,6.100870849609375,-0.01004270650446415,-0.00621380377560854,0.0001300571020692587,-0.0614423006772995,-0.5599443316459656,-0.8262488842010498,0.0014752596616744995,-0.003059208393096924,0.0034644603729248047,0.9555700679430381,0.2928789785547001,-0.033128141398316026,-0.0031928206098924827
1714155408330861000,6.110861083984375,-0.016954034566879272,-0.010581654496490955,0.0003692088648676872,-0.061551354825496674,-0.5598615407943726,-0.8262968063354492,-0.000643465667963028,-0.000898897647857666,0.002642691135406494,0.9555826279524947,0.2928317884911332,-0.03318328294938745,-0.003188488165836556
1714155408340850000,6.120849853515625,-0.010412245988845825,-0.010267933830618858,0.001877357019111514,-0.06163479760289192,-0.5598066449165344,-0.8263278007507324,-0.003154020756483078,-0.00037401914596557617,0.0026584267616271973,0.9555906977333503,0.2928001232733076,-0.033229247013341436,-0.003197267083948324
1714155408350840000,6.130840087890625,-0.009570101276040077,-0.010773136280477047,0.01288919523358345,-0.06171269714832306,-0.559761106967926,-0.8263528943061829,-0.005242869257926941,-0.0018081068992614746,0.004545032978057861,0.9555973880424127,0.29277459474780254,-0.0332655471317477,-0.0031837494817557183
1714155408360829000,6.140828857421875,-0.008571948856115341,-0.01298941858112812,0.00813492015004158,-0.06184212490916252,-0.5596701502799988,-0.8264048099517822,-0.006471473723649979,-0.0034707188606262207,0.004246056079864502,0.9556110717003113,0.2927237057181048,-0.03332310264022148,-0.0031526782166827333
1714155408370819000,6.150819091796875,-0.013880586251616478,-0.014225391671061516,0.003543164348229766,-0.06198643520474434,-0.5595487952232361,-0.8264761567115784,-0.0056710392236709595,-0.003515779972076416,0.003523886203765869,0.955629755537104,0.29265460322944964,-0.03339461832012981,-0.0031425223808202174
1714155408380809000,6.16080908203125,-0.005458606872707605,-0.011225074529647827,0.004591384902596474,-0.06211875379085541,-0.5594670176506042,-0.8265215754508972,-0.005264062434434891,-0.00022536516189575195,0.002897977828979492,0.955641643160559,0.29260787741744093,-0.033463918041092146,-0.0031446070092361333
1714155408390798000,6.170798095703125,0.0015293683391064405,-0.01099897176027298,0.006332758814096451,-0.06222254037857056,-0.5594729781150818,-0.8265097737312317,-0.005236569792032242,0.0006197690963745117,0.0023062825202941895,0.955638581752692,0.29261187255552007,-0.03351730391108063,-0.0031412222628293407
1714155408400788000,6.1807880859375,0.004402386490255594,-0.009865264408290386,0.007262734696269035,-0.06235704943537712,-0.5595303177833557,-0.8264607787132263,-0.004384893923997879,0.0009213089942932129,-0.0015420913696289062,0.9556258202655459,0.29264635893054286,-0.033581401095636454,-0.0031188793056671077
1714155408410778000,6.190778076171875,0.010511783882975578,-0.013774784281849861,0.0062359534204006195,-0.06250990182161331,-0.5596112012863159,-0.8263944387435913,-0.004476182162761688,0.002726435661315918,-0.0021883249282836914,0.9556085242570237,0.29269451926982276,-0.033655415024488794,-0.003096915233833236
1714155408420767000,6.20076708984375,0.002973440568894148,-0.009921723045408726,0.005208239424973726,-0.06265365332365036,-0.5596822500228882,-0.8263354897499084,-0.00643814355134964,0.003209412097930908,-0.004627645015716553,0.9555931720673837,0.2927365174568559,-0.03372818256388358,-0.0030867140192405024
1714155408430757000,6.210757080078125,-0.007234455086290836,-0.010327056050300598,0.00620825681835413,-0.06279083341360092,-0.5596898198127747,-0.8263199329376221,-0.007323309779167175,-0.003802001476287842,-0.0026748180389404297,0.9555891419926487,0.2927420083379777,-0.03379560572939447,-0.0030719832303679057
1714155408440746000,6.22074609375,-0.007824878208339214,-0.007556037046015263,0.004504099488258362,-0.0629458948969841,-0.5596520304679871,-0.8263337016105652,-0.0045742467045784,-0.0069373250007629395,0.001641988754272461,0.9555927795136634,0.29272177378301667,-0.033868892252237305,-0.003046991106368982
1714155408450736000,6.230736083984375,0.001488835085183382,-0.006101684644818306,-0.000684270984493196,-0.06305041164159775,-0.5596460103988647,-0.8263298273086548,-0.002592906355857849,-0.007675766944885254,0.002233147621154785,0.9555917722179499,0.29271884489090494,-0.033922869224893286,-0.0030445932024906336
1714155408460726000,6.24072607421875,0.01241605170071125,-0.006622333079576492,-0.0019751051440835,-0.06311708688735962,-0.5597032308578491,-0.8262859582901001,-0.004021584987640381,-0.003346085548400879,0.0006481409072875977,0.9555802178721756,0.2927516691367044,-0.033962791776636324,-0.003059346636389043
1714155408470715100,6.250715087890625,0.02157045342028141,-0.007051368243992329,-0.010911142453551292,-0.06316881626844406,-0.5598605871200562,-0.8261753916740417,-0.005587287247180939,0.0020297765731811523,-0.0026819705963134766,0.9555513174331198,0.2928419944695324,-0.03399787802377206,-0.003081212244520584
1714155408480705000,6.260705078125,0.02265569195151329,-0.0073147546499967575,-0.00549427280202508,-0.06321775913238525,-0.5600458383560181,-0.8260461091995239,-0.006179213523864746,0.0032984018325805664,-0.005084812641143799,0.95551734234888,0.29294779611904426,-0.03403711914491203,-0.00312062280064343
1714155408490694100,6.270694091796875,0.015142275020480156,-0.01091215293854475,-0.0037505682557821274,-0.06328175216913223,-0.5601662397384644,-0.8259595632553101,-0.005993150174617767,-0.00007545948028564453,-0.0033098459243774414,0.9554946493560754,0.2930166402358573,-0.034080174439039,-0.0031484502106273737
1714155408500684000,6.28068408203125,0.0028515211306512356,-0.006799966096878052,-0.005189207382500172,-0.0633590966463089,-0.5602009892463684,-0.8259300589561462,-0.005198642611503601,-0.006647765636444092,0.00041431188583374023,0.9554867104728525,0.2930358900950274,-0.034131250557166065,-0.003181891381453944
1714155408510674000,6.290673828125,-0.001471534837037325,-0.006407681852579117,-0.005922841839492321,-0.06341403722763062,-0.560210108757019,-0.8259196281433105,-0.007585100829601288,-0.005601048469543457,0.004569590091705322,0.9554838255387378,0.2930399849818835,-0.03417224515143647,-0.0032214356875957806
1714155408520663000,6.3006630859375,-0.008127839304506779,-0.008602392859756947,-0.008253906853497028,-0.06344923377037048,-0.5602282285690308,-0.8259046673774719,-0.008068710565567017,-0.006406903266906738,0.006233036518096924,0.9554797722377435,0.293048960201859,-0.03420498480453875,-0.003267554855148444
1714155408530653000,6.31065283203125,-0.013636747375130653,-0.011287125758826733,-0.0072054872289299965,-0.06349549442529678,-0.5601900219917297,-0.8259270191192627,-0.008220821619033813,-0.007681071758270264,0.006743669509887695,0.9554854081096275,0.29302524426138166,-0.03424486281833745,-0.003319581125995591
1714155408540642000,6.32064208984375,-0.01583678461611271,-0.0124155068770051,-0.009647605940699577,-0.06355661153793335,-0.5600916743278503,-0.8259890079498291,-0.00765615701675415,-0.007703065872192383,0.006912529468536377,0.9555014602389494,0.29296668944982096,-0.0342929295595785,-0.0033745791543136894
1714155408550632000,6.3306318359375,-0.0018371338956058025,-0.017587099224328995,-0.01031093206256628,-0.06365388631820679,-0.5599882006645203,-0.8260517120361328,-0.005834639072418213,-0.008020222187042236,0.006975233554840088,0.955517615941143,0.29290490659984214,-0.03436379632794282,-0.0034423158711080343
1714155408560622000,6.3406220703125,0.011262688785791397,-0.016946610063314438,-0.012946928851306438,-0.06375247240066528,-0.5599955916404724,-0.8260390758514404,-0.004820525646209717,-0.004564344882965088,0.00415492057800293,0.9555140542684183,0.2929070593339315,-0.034437339452827835,-0.0035134852503871244
1714155408570611000,6.35061083984375,0.0224470067769289,-0.020617511123418808,-0.01407371275126934,-0.06387851387262344,-0.5601325631141663,-0.8259364366531372,-0.0056710392236709595,-0.0008262395858764648,0.0022212862968444824,0.9554868713102549,0.29298357318008067,-0.03453131330448799,-0.0036007506762484737
1714155408580601000,6.36060107421875,0.025475021451711655,-0.016523433849215508,-0.021578500047326088,-0.06394970417022705,-0.5603874921798706,-0.8257579803466797,-0.008193843066692352,0.0011376142501831055,0.00008970499038696289,0.9554397441792247,0.2931270594878282,-0.034605271979174713,-0.0037130600740359065
1714155408590591000,6.370591064453125,0.019947471097111702,-0.01683076284825802,-0.026876460760831833,-0.06397039443254471,-0.5606408715248108,-0.8255844712257385,-0.007486514747142792,-0.0005164146423339844,0.0035172104835510254,0.955393921245062,0.2932685363409555,-0.03466037267943107,-0.003850100290899383
1714155408600580000,6.380580078125,0.015858186408877373,-0.022664949297904968,-0.031402233988046646,-0.06401620805263519,-0.5608665943145752,-0.8254275321960449,-0.006723538041114807,-0.005814313888549805,0.002673625946044922,0.955352048875678,0.29339292840902437,-0.03473953851157159,-0.004023220858980561
1714155408610570000,6.390570068359375,0.01594543270766735,-0.020062508061528206,-0.0381859727203846,-0.0640510618686676,-0.561058521270752,-0.8252943158149719,-0.0062766894698143005,-0.005576491355895996,0.004859805107116699,0.9553163584844784,0.29349724168700064,-0.034816720802057805,-0.0042094098694648585
1714155408620559000,6.40055908203125,0.007300811354070902,-0.013837369158864021,-0.03346525505185127,-0.06401936709880829,-0.5612281560897827,-0.8251814842224121,-0.007986865937709808,-0.002614617347717285,0.005845546722412109,0.9552860073013489,0.2935881439998684,-0.03486059963171181,-0.004401267439927817
1714155408630549000,6.410549072265625,0.0002411440946161747,-0.014561481773853302,-0.03229712322354317,-0.06396293640136719,-0.5613405108451843,-0.8251094222068787,-0.008699409663677216,-0.001556098461151123,0.005071580410003662,0.9552662702896988,0.2936464094095722,-0.034886790491940975,-0.004579336838788695
1714155408640539000,6.420538818359375,-0.00407317653298378,-0.014154817909002304,-0.03223906829953194,-0.06392372399568558,-0.5613861083984375,-0.825081467628479,-0.007151715457439423,-0.0008087754249572754,0.004784226417541504,0.9552581436805923,0.2936663975272134,-0.03491880960364974,-0.004748981393089824
1714155408650528000,6.430528076171875,-0.00008434755727648735,-0.023170150816440582,-0.029328633099794388,-0.06394921988248825,-0.5613749027252197,-0.8250870704650879,-0.0022128894925117493,0.0011026859283447266,0.003599703311920166,0.9552587981773222,0.29365395908575986,-0.03498289611175953,-0.004914324554692234
1714155408660518000,6.440517822265625,0.01198376715183258,-0.024190140888094902,-0.02644389681518078,-0.0640396997332573,-0.5614231824874878,-0.8250472545623779,0.0014634057879447937,0.004050135612487793,-0.0014603137969970703,0.9552475845788485,0.29367643343346483,-0.035078983936260064,-0.005071105100425577
1714155408670507000,6.450507080078125,0.03371872752904892,-0.021860141307115555,-0.022644497454166412,-0.0641443207859993,-0.5616439580917358,-0.8248888254165649,0.0008661225438117981,0.01244962215423584,-0.0031293630599975586,0.9552053876306449,0.2937992630279378,-0.035179067231874916,-0.005211289566401128
1714155408680497000,6.460496826171875,0.040848009288311005,-0.019694192335009575,-0.02065458334982395,-0.06422889977693558,-0.5620059967041016,-0.8246356248855591,0.0002335384488105774,0.017602920532226562,-0.0029399991035461426,0.9551384620640191,0.2940042686660632,-0.035265607148273925,-0.0053369566883989805
1714155408690486800,6.47048681640625,0.030938496813178062,-0.018510684370994568,-0.020043188706040382,-0.06429663300514221,-0.5623652935028076,-0.8243853449821472,-0.002811521291732788,0.017534971237182617,-0.0017406940460205078,0.9550721945975542,0.29420801389532775,-0.03534072550500623,-0.00545405521815881
1714155408700476000,6.480475830078125,0.009572487324476242,-0.01720280572772026,-0.018939308822155,-0.06437948346138,-0.5625724196434021,-0.824237585067749,-0.006253451108932495,0.0120505690574646,-0.0021021366119384766,0.9550328851822889,0.2943239371367278,-0.03542092643958973,-0.005566681840788526
1714155408710465800,6.4904658203125,-0.009068148210644722,-0.008495600894093513,-0.009899740107357502,-0.06447657942771912,-0.5625994205474854,-0.8242115378379822,-0.006995588541030884,0.0041429996490478516,0.0006946921348571777,0.9550256566445984,0.2943373224629778,-0.03549336821189228,-0.005635669074452163
1714155408720456000,6.5004560546875,-0.0239150058478117,-0.005458798259496689,-0.010000940412282944,-0.0645236000418663,-0.5624764561653137,-0.8242918252944946,-0.007650479674339294,-0.0015189647674560547,0.006252884864807129,0.9550463554879857,0.2942640948485977,-0.03553504522492955,-0.0056949371305029806
1714155408730444800,6.51044482421875,-0.03195178881287575,-0.012778496369719505,-0.008612900972366333,-0.06455162912607193,-0.5622486472129822,-0.8244450092315674,-0.007195204496383667,-0.0028148293495178223,0.008237123489379883,0.9550861258749486,0.2941302636349048,-0.03556512490855856,-0.00575236044584157
