time,seconds_elapsed,rotationRateX,rotationRateY,rotationRateZ,gravityX,gravityY,gravityZ,accelerationX,accelerationY,accelerationZ,quaternionW,quaternionX,quaternionY,quaternionZ
1714155447565121000,0.04912109375,0.10438373684883118,-0.04001278057694435,0.10429800301790237,0.011942329816520214,-0.4367438554763794,-0.899506688117981,-0.0018257535994052887,-0.0014428198337554932,0.03280746936798096,0.9745530160175655,0.22407392728808984,0.006127080400374815,-6.938893903907228e-18
1714155447575111000,0.05911083984375,0.07563097029924393,-0.08733449131250381,0.1076265498995781,0.010913165286183357,-0.43753737211227417,-0.8991340398788452,0.018505781888961792,0.0014106333255767822,0.029047369956970215,0.9744573148832282,0.22450066352173975,0.0056955984762010956,0.000416634651090278
1714155447585100000,0.06910009765625,0.04215477034449577,-0.10042233020067215,0.08818840980529785,0.009632713161408901,-0.43812867999076843,-0.8988606929779053,0.020381325855851173,0.007907092571258545,0.018382787704467773,0.9743869419897977,0.2248184534531048,0.00513047132013374,0.0008126902134984182
1714155447595090000,0.07908984375,-0.05069931969046593,-0.15030014514923096,0.054712940007448196,0.008171607740223408,-0.4380640685558319,-0.8989066481590271,0.008124779909849167,0.011535108089447021,0.0109366774559021,0.9743985617001467,0.22478216892289313,0.004432920095216125,0.0010393488706906887
1714155447605079800,0.089079833984375,-0.14458774030208588,-0.19740986824035645,0.022556336596608162,0.006456690840423107,-0.4371702969074249,-0.8993555903434753,-0.0006736107170581818,-0.0031983554363250732,0.005480468273162842,0.9745135824207886,0.22429799657250932,0.0035528514276667172,0.0010430616418761057
1714155447615069000,0.09906884765625,-0.18853187561035156,-0.21893912553787231,0.0022631825413554907,0.0044609298929572105,-0.4356120526790619,-0.9001234769821167,0.002375008538365364,-0.00588575005531311,0.0089491605758667,0.9747107026318573,0.22345486119116184,0.002489187494917392,0.0008761176294026091
1714155447625058800,0.109058837890625,-0.21890521049499512,-0.24466313421726227,0.002961995778605342,0.0023533254861831665,-0.4337533414363861,-0.901028573513031,0.012188300490379333,-0.01296299695968628,0.006558358669281006,0.9749430540932511,0.2224497535620789,0.0013466408479329318,0.0006124322948909897
1714155447635048400,0.11904833984375,-0.18095208704471588,-0.18511325120925903,0.07000787556171417,0.00018104301125276834,-0.4319269061088562,-0.9019085764884949,0.005769884213805199,-0.008334904909133911,0.0029370784759521484,0.975168810554291,0.22146263663447693,0.00009282649922757666,0
1714155447645038300,0.129038330078125,-0.13946962356567383,-0.13214591145515442,0.11716100573539734,-0.0015826920280233026,-0.4306505620479584,-0.9025173783302307,-0.007145334035158157,-0.0015241503715515137,-0.002115190029144287,0.9753248457298832,0.22077309085996044,-0.0007498779331105796,0.00027164295918928605
1714155447655027500,0.13902734375,-0.046761199831962585,-0.06580550223588943,0.11685241013765335,-0.0027484362944960594,-0.4299597144126892,-0.9028438925743103,-0.019926125183701515,-0.005037814378738403,-0.007663309574127197,0.9754083090221938,0.22040081386622806,-0.0012412609791290427,0.0007417479810955599
1714155447665017300,0.149017333984375,-0.019754614681005478,-0.04852743819355965,0.05692649260163307,-0.0033214823342859745,-0.4298638701438904,-0.9028875827789307,-0.029301809147000313,0.003182351589202881,-0.011022329330444336,0.9754191985228103,0.22034988213465967,-0.0014601708380652771,0.0010731228818436009
1714155447675006500,0.15900634765625,-0.03277427703142166,-0.06942100822925568,0.026554208248853683,-0.0038449238054454327,-0.4296574592590332,-0.9029837846755981,-0.01509123295545578,0.0003514289855957031,-0.013733744621276855,0.9754437518974308,0.220239001040632,-0.0017028998454927894,0.0011867964309432016
1714155447684996400,0.168996337890625,-0.036937862634658813,-0.07861024141311646,0.019177516922354698,-0.004532890394330025,-0.42954251170158386,-0.9030352830886841,0.007416801527142525,-0.004585325717926025,-0.012858271598815918,0.9754569822309583,0.22017753710777163,-0.0020526579164778062,0.0011997847384500465
1714155447694986200,0.178986328125,-0.03454474359750748,-0.05671399459242821,0.021859852597117424,-0.005123384762555361,-0.4294285774230957,-0.9030863046646118,0.017879733815789223,-0.006515026092529297,-0.013051390647888184,0.9754700352608825,0.22011659675218465,-0.0023529046403578165,0.0012107421663479084
1714155447704975400,0.188975341796875,-0.025533301755785942,-0.03320334479212761,0.009069356136023998,-0.005381787661463022,-0.429410845041275,-0.9030932188034058,0.010768141597509384,-0.011858075857162476,-0.015195965766906738,0.9754717215088031,0.22010728522368497,-0.002484840382917698,0.0012130550901057954
1714155447714965200,0.19896533203125,-0.015159649774432182,-0.03626225143671036,0.005378947593271732,-0.005600620061159134,-0.4293733239173889,-0.9031097292900085,0.002854038029909134,-0.009698361158370972,-0.014096081256866455,0.975475976174377,0.2200872111573787,-0.0025995196179957446,0.0012019835498805198
1714155447724954400,0.208954345703125,-0.003037740010768175,-0.03952169418334961,0.0032537453807890415,-0.005971208214759827,-0.429318904876709,-0.90313321352005,0.006047502160072327,-0.005297213792800903,-0.009952723979949951,0.975481997548919,0.22005812494305352,-0.002795339679933487,0.0011760552346025896
1714155447734944300,0.2189443359375,0.0030728832352906466,-0.03724762052297592,-0.00522429496049881,-0.006477648392319679,-0.4293513000011444,-0.9031143188476562,0.01383238472044468,-0.002106219530105591,-0.00835418701171875,0.9754771721134656,0.22007604157225924,-0.0030625528204292,0.001142213534603212
1714155447744933400,0.228933349609375,0.014533530920743942,-0.02874947339296341,-0.012313096784055233,-0.007007121574133635,-0.42933475971221924,-0.9031182527542114,0.015811443328857422,0.0003796517848968506,-0.008457064628601074,0.9754782567014642,0.2200674718153527,-0.003344845027648211,0.0010939244262411427
1714155447754923300,0.23892333984375,0.015777120366692543,-0.02190355211496353,-0.016385136172175407,-0.007283967453986406,-0.4293960928916931,-0.9030869007110596,0.012548251077532768,0.0021499693393707275,-0.00618433952331543,0.975470363629094,0.22010056804547895,-0.003505862746735911,0.0010091682448079356
1714155447764913400,0.248913330078125,0.0044363150373101234,-0.014821939170360565,-0.011996247805655003,-0.0072731198742985725,-0.42946091294288635,-0.9030561447143555,0.008234424516558647,-0.0007759034633636475,-0.0014238357543945312,0.9754626126089919,0.22013520108905377,-0.0035230564504742483,0.0009083060172157889
1714155447774902300,0.25890234375,-0.001794629730284214,-0.011587530374526978,-0.02053973451256752,-0.00715351989492774,-0.42946672439575195,-0.9030543565750122,0.005368240177631378,-0.006873637437820435,0.00026810169219970703,0.9754622695062902,0.22013781110165118,-0.003487520157709069,0.0007941186618988377
1714155447784892400,0.268892333984375,-0.01139852125197649,-0.010172593407332897,-0.02913988009095192,-0.0070344796404242516,-0.42944782972335815,-0.9030642509460449,0.002273736521601677,-0.008021652698516846,-0.003963947296142578,0.9754648052397201,0.2201270098643899,-0.0034603635225452147,0.0006440687850313639
1714155447794881300,0.27888134765625,-0.013607187196612358,-0.002613210352137685,-0.03259400278329849,-0.006909600459039211,-0.4293692708015442,-0.9031025767326355,-0.0013454053550958633,-0.0066964030265808105,-0.005756676197052002,0.9754747295222527,0.22008391465243557,-0.0034325850859881248,0.00048345250225199227
1714155447804871400,0.288871337890625,-0.013473495841026306,-0.003678474808111787,-0.030976129695773125,-0.006717875134199858,-0.4292554259300232,-0.9031581282615662,-0.007381245493888855,-0.005024969577789307,-0.007867813110351562,0.9754890661230167,0.22002172013770552,-0.0033717065522469395,0.00031758047165833525
1714155447814860300,0.2988603515625,-0.015218452550470829,-0.00126112368889153,-0.04275502637028694,-0.006438212934881449,-0.4291221797466278,-0.9032235145568848,-0.010788960382342339,-0.0032966434955596924,-0.006886959075927734,0.9755058463164262,0.2199489540205849,-0.0032724882249024635,0.00012173335765542498
1714155447824850400,0.308850341796875,-0.012324661947786808,0.007963267154991627,-0.04491964355111122,-0.006082161329686642,-0.4289613664150238,-0.9033023715019226,-0.013952627778053284,-0.0015501081943511963,-0.004809200763702393,0.9755260889552885,0.21986123936142585,-0.0031398896033628335,-0.00009989762371796773
1714155447834840300,0.31884033203125,-0.01330326683819294,0.01613970473408699,-0.04836830496788025,-0.005647956393659115,-0.42877694964408875,-0.9033927321434021,-0.02010887861251831,0.0013172328472137451,-0.0026741623878479004,0.9755492237159841,0.219760840104974,-0.002967549852565119,-0.0003231364449810606
1714155447844829400,0.328829345703125,-0.015459895133972168,0.011654142290353775,-0.04535120725631714,-0.005264849867671728,-0.42866647243499756,-0.9034475088119507,-0.023711590096354485,-0.0003496408462524414,0.0010732412338256836,0.9755632076326116,0.21970047296133569,-0.0028212401913471664,-0.0005456214907940959
1714155447854819300,0.3388193359375,-0.02049284428358078,0.0026459998916834593,-0.0459480881690979,-0.00498706940561533,-0.42858853936195374,-0.9034860134124756,-0.021105458959937096,-0.004028648138046265,0.005552053451538086,0.9755729338014798,0.2196578096167455,-0.002726201668798294,-0.0007560571593865431
1714155447864808400,0.348808349609375,-0.024840187281370163,-0.011037321761250496,-0.04900673031806946,-0.004809255711734295,-0.4284617602825165,-0.9035471081733704,-0.01330292597413063,-0.0063832104206085205,0.009717762470245361,0.975588277838748,0.2195887246186977,-0.0026899757673278183,-0.0010004205666307511
1714155447874798300,0.35879833984375,-0.02056693285703659,-0.01833651401102543,-0.05170537531375885,-0.0047564152628183365,-0.42831334471702576,-0.9036177396774292,-0.010838067159056664,-0.004548013210296631,0.009925782680511475,0.975606132444285,0.219507892495788,-0.0027205161241669936,-0.0012571053346465341
1714155447884787200,0.368787109375,-0.006459102500230074,-0.019821757450699806,-0.049448613077402115,-0.004801543429493904,-0.4282148480415344,-0.9036641716957092,-0.014348234981298447,-0.002067744731903076,0.008263230323791504,0.9756176565067821,0.21945395919317595,-0.00280360730047406,-0.001524133022939786
1714155447894777300,0.37877734375,0.002818071749061346,-0.02923789620399475,-0.048550862818956375,-0.0049211932346224785,-0.4282087981700897,-0.9036664366722107,-0.018317943438887596,0.001511991024017334,0.009165704250335693,0.9756177969902091,0.21944985034866737,-0.002923283038405883,-0.0017835982087043081
1714155447904766200,0.38876611328125,0.005453003570437431,-0.03133966401219368,-0.04309138283133507,-0.0051339431665837765,-0.4282587170600891,-0.9036415815353394,-0.020058317109942436,0.004094898700714111,0.009232401847839355,0.9756109029800724,0.21947593452892497,-0.003086307153531722,-0.0020232894159522424
1714155447914756400,0.39875634765625,0.002320327330380678,-0.0376441664993763,-0.033313386142253876,-0.005449370015412569,-0.42827504873275757,-0.9036319851875305,-0.020734712481498718,0.003943383693695068,0.008017361164093018,0.975608022157946,0.21948383575823374,-0.0032939756323729624,-0.002227700033395001
1714155447924746200,0.408746337890625,-0.006961055565625429,-0.03982609137892723,-0.03213493898510933,-0.005853081587702036,-0.42827582359313965,-0.9036291241645813,-0.02146015129983425,0.00038886070251464844,0.013004124164581299,0.9756068603988712,0.21948326294954595,-0.003542044462693574,-0.002410671800396079
1714155447934735400,0.4187353515625,-0.011668724939227104,-0.05031308904290199,-0.03287436440587044,-0.006285619456321001,-0.4282471835613251,-0.9036397933959961,-0.019425438717007637,-0.0021422505378723145,0.018294334411621094,0.9756091139639272,0.21946670703059573,-0.0038050160029069555,-0.002594464499196536
1714155447944725200,0.428725341796875,-0.010450595058500767,-0.056948885321617126,-0.024722961708903313,-0.00674806535243988,-0.42827150225639343,-0.9036248922348022,-0.01690305583178997,-0.001141369342803955,0.01812690496444702,0.9756048468825771,0.21947861599315302,-0.004083698088608034,-0.0027795102959206064
1714155447954714400,0.43871435546875,-0.013804741203784943,-0.05893800035119057,-0.017800208181142807,-0.007261999882757664,-0.42826181650161743,-0.9036255478858948,-0.015153160318732262,-0.002692192792892456,0.018783628940582275,0.9756045144924547,0.21947215528698033,-0.004382925763449837,-0.002938879648197411
1714155447964704300,0.448704345703125,-0.007907702587544918,-0.06789208203554153,-0.017229491844773293,-0.007854850962758064,-0.4282110929489136,-0.9036446213722229,-0.011691656894981861,-0.0027123689651489258,0.0183144211769104,0.9756089885861849,0.21944345938704674,-0.004718674699119036,-0.0030812316787657418
1714155447974693400,0.458693359375,-0.006739321164786816,-0.07502083480358124,-0.015120601281523705,-0.008558925241231918,-0.4281550645828247,-0.903664767742157,-0.008302035741508007,-0.000983119010925293,0.018456637859344482,0.975613594637729,0.21941166098302772,-0.005113673270729759,-0.003233677678318128
1714155447984683300,0.468683349609375,-0.007351315580308437,-0.08556348830461502,-0.013815918937325478,-0.00935386959463358,-0.42810681462287903,-0.9036797285079956,-0.003814464434981346,-0.0020994842052459717,0.017830729484558105,0.9756170061889575,0.21938391040257255,-0.005552700875301445,-0.00337478901974763
1714155447994673400,0.47867333984375,-0.00010693073272705078,-0.08998779952526093,-0.015035579912364483,-0.010226075537502766,-0.42806872725486755,-0.9036883115768433,0.0023067649453878403,-0.004716277122497559,0.016435563564300537,0.9756186999161126,0.2193614678831838,-0.006031521968876877,-0.003516696457671546
1714155448004662300,0.488662353515625,0.0022379825823009014,-0.08880402892827988,-0.016529081389307976,-0.011102107353508472,-0.42813223600387573,-0.9036478996276855,0.003793146461248398,-0.005949795246124268,0.014945507049560547,0.9756077639180357,0.21939362410365248,-0.006517578060527911,-0.0036808102835783757
1714155448014652400,0.49865234375,0.01830270141363144,-0.0940893366932869,-0.01695026084780693,-0.011952312663197517,-0.42830193042755127,-0.9035566449165344,0.002705487422645092,-0.0057495832443237305,0.012748539447784424,0.975583636067594,0.21948297968456437,-0.006993280977355678,-0.0038562168039417213
1714155448024641300,0.508641357421875,0.035847608000040054,-0.09411703050136566,-0.025272373110055923,-0.012796909548342228,-0.4286379814147949,-0.9033856987953186,0.0026803333312273026,-0.003735095262527466,0.009861528873443604,0.9755390392470427,0.219661796842228,-0.007472689322140557,-0.00405826408200053
1714155448034631400,0.51863134765625,0.05007820948958397,-0.08808976411819458,-0.028078943490982056,-0.013553530909121037,-0.4291171729564667,-0.9031471014022827,0.003955753520131111,-0.0008602440357208252,0.00644916296005249,0.975476862980406,0.21991769498839295,-0.007914678379654198,-0.0042916980243717096
1714155448044620300,0.528620361328125,0.05230114981532097,-0.08328355848789215,-0.03099270910024643,-0.014225664548575878,-0.42966219782829285,-0.9028776288032532,0.0025374339893460274,0.004201382398605347,0.003417789936065674,0.9754066598282954,0.22020909635428051,-0.008315270994461329,-0.004531775731135425
1714155448054610400,0.5386103515625,0.029124297201633453,-0.07749837636947632,-0.03685225918889046,-0.014819227159023285,-0.43009132146835327,-0.9026637673377991,0.000018201768398284912,0.002509504556655884,0.0017696022987365723,0.9753507101012533,0.22043775231267684,-0.008678675916973255,-0.0047865638138451655
1714155448064599300,0.548599365234375,0.010577777400612831,-0.07161705195903778,-0.041887231171131134,-0.01530398614704609,-0.4303472340106964,-0.9025337100028992,-0.0023351721465587616,-0.0030481815338134766,-0.0007713437080383301,0.9753159244377175,0.2205726769856842,-0.008991734052128282,-0.005067664490779611
1714155448074589400,0.55858935546875,-0.006656070705503225,-0.06796479225158691,-0.04953776299953461,-0.01568000577390194,-0.430438369512558,-0.9024837613105774,-0.0019133780151605606,-0.006710708141326904,-0.0007449984550476074,0.9753014970909457,0.22061832063065684,-0.00925569498160113,-0.005380744078047367
1714155448084579600,0.56857958984375,-0.009973304346203804,-0.07055551558732986,-0.05111036077141762,-0.016033094376325607,-0.4304714798927307,-0.9024617671966553,0.0016440562903881073,-0.006555527448654175,-0.0027201175689697266,0.9752940009622248,0.22063236631477628,-0.009511396322106291,-0.0057102258235993825
1714155448094568400,0.578568359375,-0.00396329490467906,-0.0647684633731842,-0.05735341086983681,-0.01635170727968216,-0.43049490451812744,-0.9024448394775391,0.004404075443744659,-0.0030683279037475586,-0.0018214583396911621,0.9752873961284722,0.22064085021977278,-0.009756173626763022,-0.0060696823231613725
1714155448104558600,0.58855859375,0.0023619788698852062,-0.05813372880220413,-0.06041737645864487,-0.01661289669573307,-0.4305441379547119,-0.9024166464805603,0.00452793762087822,0.0025808513164520264,-0.005359232425689697,0.9752779145975327,0.22066320847358553,-0.009971685426059813,-0.006429326741159196
1714155448114547500,0.59854736328125,0.0008583045564591885,-0.04704245924949646,-0.06539376080036163,-0.016749419271945953,-0.4305981993675232,-0.9023882746696472,0.0006361380219459534,0.008738428354263306,-0.005677461624145508,0.9752681201436557,0.22068830317373292,-0.010125247386687356,-0.006797468390946977
1714155448124537300,0.608537353515625,-0.0044640228152275085,-0.037389032542705536,-0.0652502179145813,-0.016814617440104485,-0.43057674169540405,-0.9023973345756531,-0.0027624089270830154,0.010715901851654053,-0.004981815814971924,0.9752678676839583,0.2206727492840817,-0.010240742025358813,-0.007160639908725529
1714155448134526500,0.6185263671875,-0.01927194371819496,-0.0362851545214653,-0.06776437163352966,-0.016849827021360397,-0.43045753240585327,-0.9024535417556763,-0.0032307393848896027,0.00806376338005066,-0.0049408674240112305,0.9752793946505975,0.22060431323707347,-0.010342813902496414,-0.0075348485168427945
1714155451201326600,3.68532666015625,0.07650790363550186,0.09159690886735916,0.02344263717532158,-0.02677295356988907,-0.48515942692756653,-0.874015748500824,0.0013975836336612701,0.0029206573963165283,0.010063111782073975,0.9659965591575443,0.25097196761155727,0.0022804873129915852,0.062116180362650195
1714155451211316500,3.69531640625,0.06788074970245361,0.07549010962247849,0.025661982595920563,-0.026475735008716583,-0.48539936542510986,-0.8738915920257568,0.005693264305591583,0.005281567573547363,0.009862661361694336,0.9659475618652598,0.25109343723391564,0.0025104299954663446,0.06237841865409993
1714155451221305600,3.7053056640625,0.0697697252035141,0.06426674872636795,0.017186470329761505,-0.026346521452069283,-0.485664963722229,-0.8737478852272034,0.007517173886299133,0.003838181495666504,0.0067740678787231445,0.965895304948682,0.2512350318001736,0.0026471392810451765,0.06261117256348893
1714155451231295500,3.71529541015625,0.06650304049253464,0.0760192796587944,0.007472791243344545,-0.02609102427959442,-0.48598766326904297,-0.8735761046409607,0.003523273393511772,0.0070600807666778564,0.0035352706909179688,0.9658386679344786,0.25140383172617453,0.002839182799917,0.06279818526004685
1714155451241284600,3.72528466796875,0.0475517213344574,0.09016519039869308,0.007036298979073763,-0.02561177872121334,-0.4862983524799347,-0.8734173774719238,-0.0024643950164318085,0.007202893495559692,0.009220600128173828,0.9657874344711294,0.2515580524679082,0.0031382624297465293,0.06295478653774973
1714155451251274500,3.7352744140625,0.010381875559687614,0.09365712851285934,0.027901701629161835,-0.025090884417295456,-0.48650383949279785,-0.873318076133728,-0.0075629279017448425,0.000007867813110351562,0.016170859336853027,0.965746782086772,0.2516523272341198,0.0034738988745837557,0.06318379370295876
1714155451261263600,3.745263671875,-0.028910670429468155,0.08887435495853424,0.05115269497036934,-0.024702973663806915,-0.4864009618759155,-0.8733864426612854,-0.003907257691025734,-0.013797402381896973,0.032947659492492676,0.9657418660004999,0.2515803027675854,0.003759660103484594,0.06352781950492067
1714155451271253500,3.75525341796875,-0.04279889166355133,0.10175180435180664,0.047491248697042465,-0.024231035262346268,-0.4861339330673218,-0.8735483288764954,-0.0018767565488815308,-0.018245339393615723,0.03953343629837036,0.9657593124236954,0.25141423991750894,0.0040896913793708745,0.06389922347630815
1714155451281243600,3.76524365234375,-0.03581874817609787,0.1053830236196518,0.04090312123298645,-0.02353307418525219,-0.4857816696166992,-0.8737633228302002,-0.004314221441745758,-0.011609077453613281,0.043792009353637695,0.9657920606275697,0.25119286252137163,0.004525951363296173,0.06424412070372365
1714155451291232500,3.775232421875,-0.019388429820537567,0.10781688988208771,0.04377034679055214,-0.02278461679816246,-0.4855301082134247,-0.8739229440689087,-0.006146049126982689,-0.00813746452331543,0.04265469312667847,0.9658114295403427,0.2510251916752111,0.00498751331720927,0.06457242612269679
1714155451301222700,3.78522265625,-0.04288842901587486,0.11941255629062653,0.0567718967795372,-0.022011641412973404,-0.4852679669857025,-0.8740883469581604,-0.0029517412185668945,-0.007316291332244873,0.043338894844055176,0.9658293014760306,0.2508502887084816,0.005472653794120255,0.06494499208361271
1714155451311211500,3.79521142578125,-0.04697020351886749,0.10748159885406494,0.06148815527558327,-0.021303746849298477,-0.4848271608352661,-0.8743504881858826,0.0015588700771331787,-0.007650256156921387,0.03864187002182007,0.965867460099639,0.25057841143679027,0.005934865271184706,0.0653853867963592
1714155451321201700,3.80520166015625,-0.011827662587165833,0.11189978569746017,0.03117818757891655,-0.020643102005124092,-0.484544038772583,-0.8745232224464417,0.002408847212791443,-0.0001513957977294922,0.027767300605773926,0.9658867600873561,0.2503955200275376,0.006361183631421605,0.0657588999667868
1714155451331191600,3.815191650390625,0.04510326310992241,0.13530310988426208,-0.023137181997299194,-0.019640568643808365,-0.4847516119480133,-0.874431312084198,-0.003293391317129135,0.026133447885513306,0.014400243759155273,0.9658507953901407,0.25047211631464333,0.006932316344420592,0.06593894668240166
1714155451341180700,3.8251806640625,0.07220971584320068,0.1411665976047516,-0.039698850363492966,-0.01831606961786747,-0.4854850769042969,-0.8740530610084534,-0.01005002111196518,0.042568206787109375,0.011916279792785645,0.9657517939548068,0.25082858030119976,0.0076473333083608794,0.06595524711313318
1714155451351170600,3.835170654296875,0.06191713362932205,0.10989788174629211,-0.035712696611881256,-0.01708448864519596,-0.4863021969795227,-0.8736236691474915,-0.008885972201824188,0.036381542682647705,0.008847057819366455,0.9656424406857166,0.2512352934331969,0.008306549858207293,0.0659278462404752
1714155451361159700,3.84515966796875,0.036480747163295746,0.10130146890878677,-0.036661580204963684,-0.01606881432235241,-0.4869312345981598,-0.8732924461364746,0.008195275440812111,0.020759999752044678,0.007615625858306885,0.9655590993116486,0.2515462823158028,0.008845079152327398,0.0658918641528777
1714155451371149600,3.855149658203125,0.007069169543683529,0.08972311019897461,-0.024273019284009933,-0.015157146379351616,-0.48727110028266907,-0.8731191754341125,0.020711340010166168,0.0003478825092315674,0.010829806327819824,0.9655162552350606,0.25170127944078996,0.00932047528973043,0.06586237331320913
1714155451381138700,3.865138671875,-0.007674090098589659,0.07373268902301788,-0.005588548723608255,-0.01444102544337511,-0.4874315559864044,-0.8730417490005493,0.022451885044574738,-0.01813790202140808,0.012262940406799316,0.965493353535977,0.25176358457040976,0.009706670622616412,0.06590404476094731
1714155451391128600,3.875128662109375,-0.028346985578536987,0.05056585371494293,0.008797913789749146,-0.013952567242085934,-0.4873957633972168,-0.873069703578949,0.01936943456530571,-0.027542561292648315,0.007377564907073975,0.9654939732741895,0.25172506839836023,0.009982364267753403,0.06600135704730492
1714155451401118700,3.88511865234375,-0.027609556913375854,0.02499418333172798,0.0008984454907476902,-0.013681828044354916,-0.4872119128704071,-0.8731765747070312,0.018488343805074692,-0.029908448457717896,0.0022812485694885254,0.9655163558133977,0.25161278377810553,0.010134783931556698,0.0660785723802779
1714155451411107600,3.895107666015625,-0.02094845660030842,0.0010102863889187574,-0.0055955396965146065,-0.013613264076411724,-0.48684996366500854,-0.8733794689178467,0.019503153860569,-0.029446393251419067,0.001461803913116455,0.9655672852168766,0.2514100089394289,0.010161789531790782,0.06610128129308743
1714155451421097700,3.90509765625,0.004113220144063234,-0.020796475932002068,-0.016681745648384094,-0.013757600449025631,-0.4865078628063202,-0.8735678791999817,0.01870144158601761,-0.02873566746711731,0.0066092610359191895,0.9656197421092262,0.2512267125176543,0.010060166425142762,0.06604829348239631
1714155451431086600,3.915086669921875,0.03583695739507675,-0.03830596059560776,-0.026701755821704865,-0.01402187254279852,-0.48641377687454224,-0.8736160397529602,0.016737934201955795,-0.025915294885635376,0.01292884349822998,0.9656409759972513,0.2511856358080261,0.009886946630135942,0.06592007993740322
1714155451441076700,3.92507666015625,0.05739125236868858,-0.04790665581822395,-0.0375077985227108,-0.014197408221662045,-0.48668742179870605,-0.8734608292579651,0.011786517687141895,-0.017325639724731445,0.022050917148590088,0.9656148625955744,0.25134531665896137,0.00975344400137234,0.06571347712372719
1714155451451065600,3.935065673828125,0.06342591345310211,-0.05711480230093002,-0.05449816957116127,-0.014250164851546288,-0.4872729182243347,-0.8731334805488586,0.006849650293588638,-0.007035583257675171,0.03708916902542114,0.965551893365299,0.25167405556015354,0.00966590664966828,0.06539417434463168
1714155451461055700,3.9450556640625,0.05523190647363663,-0.0659160166978836,-0.05766892805695534,-0.01431963313370943,-0.4880152642726898,-0.8727176189422607,0.0010139644145965576,-0.005850702524185181,0.04898715019226074,0.965469360107944,0.2520908030787962,0.009561429239390259,0.06502055388597433
1714155451471045600,3.955045654296875,0.03421056270599365,-0.07987497746944427,-0.04128376394510269,-0.014553968794643879,-0.4886607229709625,-0.8723524808883667,-0.0010710358619689941,-0.013948529958724976,0.0537642240524292,0.9653990593821499,0.25245975738686294,0.009371377198338375,0.06466021833491956
1714155451481034500,3.965034423828125,0.013270925730466843,-0.08227981626987457,-0.039550844579935074,-0.014909468591213226,-0.48908811807632446,-0.8721069097518921,-0.0020888252183794975,-0.01963987946510315,0.050527989864349365,0.9653561966268112,0.2527118993944049,0.009123061712451702,0.06434892338039246
1714155451491024600,3.975024658203125,-0.002627986017614603,-0.08762610703706741,-0.04785584658384323,-0.01527409441769123,-0.48934227228164673,-0.8719580769538879,-0.0050353556871414185,-0.018119245767593384,0.04171210527420044,0.9653399141252927,0.25286858270393936,0.008857369674516563,0.0640151479339334
1714155451501013500,3.985013427734375,-0.014222057536244392,-0.10152781009674072,-0.0531371608376503,-0.01569489575922489,-0.4895046353340149,-0.8718594312667847,-0.007132258266210556,-0.01748386025428772,0.030535578727722168,0.9653397400249679,0.25297678795197737,0.008545829356333105,0.06363064617870534
1714155451511003600,3.995003662109375,-0.015144417062401772,-0.1106821596622467,-0.06163443997502327,-0.016188643872737885,-0.4896388351917267,-0.8717750310897827,-0.007492998614907265,-0.014664113521575928,0.01810687780380249,0.9653458950929799,0.2530720919943674,0.008184710802830576,0.0632049102068455
1714155451520993800,4.004993896484375,-0.011529441922903061,-0.11004219949245453,-0.0592288076877594,-0.016740625724196434,-0.48979395627975464,-0.8716774582862854,-0.006483251228928566,-0.008985310792922974,0.016300320625305176,0.9653496695846491,0.253180968834326,0.0077888792346678445,0.06275868418211217
1714155451530982700,4.014982666015625,-0.006694046780467033,-0.1114741861820221,-0.06388673931360245,-0.01731439121067524,-0.4899619221687317,-0.8715718388557434,-0.0072522591799497604,-0.004392296075820923,0.018437743186950684,0.9653513158146284,0.2532974293872921,0.007381727384943922,0.062310760408325123
1714155451540972800,4.024972900390625,-0.005640234798192978,-0.12310446798801422,-0.06388913840055466,-0.018003175035119057,-0.4902084171772003,-0.8714193105697632,-0.009722050279378891,0.0004928410053253174,0.019811034202575684,0.9653415523128495,0.25346114194182073,0.0069141872387969705,0.06184829506424287
1714155451550961700,4.034961669921875,-0.0007922160439193249,-0.11919628828763962,-0.06701082736253738,-0.01873175799846649,-0.49052223563194275,-0.8712273240089417,-0.010031063109636307,0.0022867321968078613,0.01833730936050415,0.9653223026202029,0.2536632819840553,0.006424611235054736,0.06137151260463039
1714155451560951800,4.044951904296875,0.001653364859521389,-0.12305387854576111,-0.06826917082071304,-0.019457586109638214,-0.49085044860839844,-0.8710265159606934,-0.009824031963944435,0.003393203020095825,0.018014490604400635,0.9653009625410551,0.25387302269203305,0.005934833929154415,0.060887500074705225
1714155451570940700,4.054940673828125,-0.0005620652809739113,-0.12542808055877686,-0.06237732991576195,-0.02021903544664383,-0.49111300706863403,-0.8708611726760864,-0.00848274677991867,-0.0010134577751159668,0.013759732246398926,0.9652879594435638,0.25404717636124186,0.005426442762887267,0.06041239331839743
1714155451580930800,4.064930908203125,-0.011533223092556,-0.12414737045764923,-0.05124052241444588,-0.021047642454504967,-0.49125605821609497,-0.8707608580589294,-0.005762055516242981,-0.006485641002655029,0.008929252624511719,0.9652884644200522,0.2541566912163206,0.004892640089562765,0.059989096561499825
1714155451590920700,4.074920654296875,-0.0068085091188549995,-0.12540411949157715,-0.04580467566847801,-0.021913697943091393,-0.4913139343261719,-0.8707068562507629,-0.004255127161741257,-0.011066436767578125,0.0043280720710754395,0.9652984299880327,0.25421976259342893,0.004346063285194579,0.05960235832391663
1714155451600909800,4.084909912109375,0.003108569886535406,-0.11561939120292664,-0.05034909397363663,-0.022737883031368256,-0.49138447642326355,-0.8706458806991577,-0.006269078701734543,-0.00617411732673645,-0.0013176202774047852,0.9653058501542054,0.2542881035323522,0.003823469876404329,0.05922321561434363
1714155451610899700,4.094899658203125,0.01124133076518774,-0.11100706458091736,-0.0472535714507103,-0.023487087339162827,-0.4915408790111542,-0.8705376982688904,-0.010295871645212173,0.0019626617431640625,-0.004080832004547119,0.9653014927510096,0.2544012464757568,0.003340465272889394,0.058836582839303285
1714155451620888800,4.104888916015625,0.02053816057741642,-0.11162997782230377,-0.0449209064245224,-0.024265296757221222,-0.4917667806148529,-0.8703888058662415,-0.011211391538381577,0.008642971515655518,-0.004626452922821045,0.9652851294370731,0.25455349266755717,0.002850703613798262,0.05847254189332851
1714155451630878700,4.114878662109375,0.018741324543952942,-0.10349641740322113,-0.049438025802373886,-0.025014400482177734,-0.4920194149017334,-0.8702247738838196,-0.007181646302342415,0.014953404664993286,-0.0063468217849731445,0.9652650899109861,0.2547194135073329,0.002374385906713683,0.05809966112731809
1714155451640865800,4.12486572265625,0.018638793379068375,-0.09675489366054535,-0.04252446070313454,-0.025714809074997902,-0.49227726459503174,-0.870058536529541,-0.0013695433735847473,0.01624882221221924,-0.009946346282958984,0.9652431400083477,0.25488627102297434,0.0019291946297213345,0.0577494667427494
1714155451650855700,4.134855712890625,0.013955570757389069,-0.09891977906227112,-0.035818424075841904,-0.026399988681077957,-0.49251261353492737,-0.8699048161506653,0.001436607912182808,0.01103675365447998,-0.010054290294647217,0.9652221395348752,0.25503990062965853,0.0014999267976842819,0.05743319669827411
1714155451660846000,4.14484619140625,0.012175780721008778,-0.09340064227581024,-0.032099053263664246,-0.027098799124360085,-0.49272921681404114,-0.8697606325149536,0.0035239700227975845,0.006279021501541138,-0.012441456317901611,0.9652012262272414,0.25518334193912545,0.001073086702123095,0.057155550410501216
1714155451670834700,4.154834716796875,0.011327297426760197,-0.07957430928945541,-0.031666021794080734,-0.027689766138792038,-0.49297648668289185,-0.8696019053459167,0.0038250163197517395,0.009196579456329346,-0.011944115161895752,0.9651757300953318,0.2553400744604615,0.0007066843346864027,0.05689258812823617
1714155451680825000,4.1648251953125,0.004277377389371395,-0.07586798816919327,-0.02411942183971405,-0.028242846950888634,-0.4930969774723053,-0.8695157766342163,0.0018604006618261337,0.010797172784805298,-0.010778963565826416,0.9651668879666047,0.2554250899115854,0.0003643051784031747,0.05666255871162689
1714155451690813700,4.174813720703125,-0.002953744027763605,-0.07159920781850815,-0.02556338720023632,-0.028824640437960625,-0.49305954575538635,-0.8695179224014282,0.0019844267517328262,0.012880712747573853,-0.007313132286071777,0.9651796877326522,0.2554232525956379,0.000007789199523116144,0.0564546802699983
1714155451700804000,4.18480419921875,-0.019174525514245033,-0.06419029086828232,-0.024189196527004242,-0.029356760904192924,-0.49285972118377686,-0.8696134090423584,0.004866402596235275,0.012238413095474243,-0.0024111270904541016,0.9652153794958009,0.255329570981363,-0.00032275913416441454,0.05626785797681073
1714155451710792700,4.194792724609375,-0.03343841806054115,-0.058876216411590576,-0.026327848434448242,-0.02978668361902237,-0.49243947863578796,-0.8698368668556213,0.004716493189334869,0.007377833127975464,0.003397047519683838,0.965283875388887,0.2551101964080485,-0.0006066531133936924,0.056084584180026056
1714155451720783000,4.204783203125,-0.04497895762324333,-0.061584118753671646,-0.029600074514746666,-0.03014407493174076,-0.49188491702079773,-0.8701382279396057,0.005607940256595612,0.0049311816692352295,0.006399273872375488,0.9653741081461583,0.2548139030602293,-0.0008640742446888502,0.0558756101751269
1714155451730773000,4.21477294921875,-0.03713296353816986,-0.050930675119161606,-0.027321873232722282,-0.03043936751782894,-0.49139076471328735,-0.8704071044921875,0.006650913506746292,0.0044980645179748535,0.006439268589019775,0.9654563918009569,0.2545491285554785,-0.0010906518727242173,0.05565411820409641
1714155451740762000,4.22476220703125,-0.02959888055920601,-0.04079202190041542,-0.022632578387856483,-0.030635066330432892,-0.49098971486091614,-0.8706265091896057,0.006404107436537743,0.006355315446853638,0.007482647895812988,0.9655242703549455,0.2543327696466826,-0.0012549318151725674,0.0554622453947713
1714155451750752000,4.234751953125,-0.01627977564930916,-0.03874138742685318,-0.017475435510277748,-0.030810842290520668,-0.49066582322120667,-0.8708029389381409,0.00680876336991787,0.006199270486831665,0.01136690378189087,0.965578534224607,0.25415860498821036,-0.0013952721829703137,0.05531261079175138
1714155451760741000,4.2447412109375,-0.010260764509439468,-0.03482653945684433,-0.023461954668164253,-0.030985519289970398,-0.4904325306415558,-0.8709281086921692,0.008738202974200249,0.010574132204055786,0.013933539390563965,0.9656192574634483,0.25403462101131563,-0.0015309889917053381,0.05516731268258343
1714155451770731000,4.25473095703125,-0.014022374525666237,-0.03298230096697807,-0.025793353095650673,-0.031110985204577446,-0.49020758271217346,-0.8710502982139587,0.009306173771619797,0.019275575876235962,0.00845569372177124,0.9656604918170406,0.2539136395929005,-0.001646816157935058,0.05499990924275374
1714155451780721000,4.264720947265625,-0.030192023143172264,-0.02724718302488327,-0.022370392456650734,-0.031193619593977928,-0.48992496728897095,-0.8712063431739807,0.004933241754770279,0.021281778812408447,0.003210127353668213,0.9657100375115748,0.2537593494597694,-0.001740880549391451,0.054837875570939415
1714155451790710000,4.2747099609375,-0.047304749488830566,-0.018232382833957672,-0.01750732585787773,-0.031243762001395226,-0.48957711458206177,-0.8714000582695007,0.005166489630937576,0.015135586261749268,0.003953158855438232,0.9657671135270194,0.25356793042956416,-0.0018095578012522501,0.05471618401829216
1714155451800700000,4.284699951171875,-0.05784447491168976,-0.01755833812057972,-0.015342708677053452,-0.031283557415008545,-0.4891301393508911,-0.8716496229171753,0.007296741008758545,0.006662487983703613,0.007956385612487793,0.9658378851479218,0.25332131461504626,-0.0018725639192331053,0.054607267260137496
1714155451810689000,4.29468896484375,-0.05918409675359726,-0.009570186026394367,-0.0197551678866148,-0.0312529094517231,-0.48863446712493896,-0.8719286918640137,0.0109434574842453,0.005113959312438965,0.007304668426513672,0.9659159478438626,0.25304556005724066,-0.001899018121692509,0.05450465999041008
1714155451820679000,4.304678955078125,-0.06812140345573425,0.0038910277653485537,-0.017793215811252594,-0.03110639937222004,-0.4881078600883484,-0.8722288012504578,0.00798933394253254,0.007806956768035889,0.004934489727020264,0.9659996301856905,0.25274910761894787,-0.0018679099675533856,0.05439702558478719
1714155451830668000,4.31466796875,-0.08092028647661209,0.007484697736799717,-0.01134803332388401,-0.030930181965231895,-0.48750364780426025,-0.8725728988647461,0.0021368488669395447,0.006012588739395142,0.002974569797515869,0.9660919465642955,0.25240892424736683,-0.0018109801384277539,0.05433848326225337
1714155451840658000,4.324657958984375,-0.09168931096792221,0.013869360089302063,-0.02000730112195015,-0.030679909512400627,-0.486768901348114,-0.8729918599128723,0.002420630306005478,-0.003892749547958374,0.00340878963470459,0.9662047963156368,0.2519942271666248,-0.001724708181454938,0.05426129584554955
1714155451850647800,4.334647705078125,-0.10178966820240021,0.019894229248166084,-0.03315233066678047,-0.030329223722219467,-0.48585134744644165,-0.8735150694847107,0.004068847745656967,-0.013828188180923462,0.0017194747924804688,0.9663462657351702,0.25147545476504657,-0.0016009818092718783,0.05415044958797918
1714155451860637000,4.344636962890625,-0.09630995243787766,0.01763959601521492,-0.03900329768657684,-0.029954344034194946,-0.484845370054245,-0.8740867972373962,0.003159908577799797,-0.019900083541870117,-0.0022407174110412598,0.9665028612194849,0.2509072019926089,-0.0014785490424527245,0.05399665817316604
1714155451870626800,4.354626708984375,0.7773698568344116,0.5991754531860352,0.3521822392940521,-0.028257396072149277,-0.49025049805641174,-0.8711234331130981,-0.0021075978875160217,-0.020125478506088257,-0.009980082511901855,0.9656764110333769,0.2538469439005763,-0.0001590848768554618,0.055053146889246195
1714155451880616000,4.364615966796875,-0.23532110452651978,-0.0163577850908041,-0.115054190158844,-0.0278480164706707,-0.4911438226699829,-0.8706332445144653,-0.01090930961072445,-0.00678098201751709,-0.010638117790222168,0.9655061709364321,0.2543291298573276,0.00027881951478839727,0.05580646740990574
1714155451890605800,4.374605712890625,0.127844899892807,-0.029073312878608704,-0.052471570670604706,-0.026915155351161957,-0.491198867559433,-0.8706315159797668,-0.11610547453165054,0.09085401892662048,-0.012913405895233154,0.965535720593497,0.2543302066984969,0.0006247801277889809,0.05528570789438665
1714155451900596000,4.384595947265625,-0.11040760576725006,-0.04017150402069092,-0.05380234867334366,-0.0270554069429636,-0.49119046330451965,-0.8706319332122803,0.006211899220943451,-0.10242220759391785,0.06016135215759277,0.9655464400822428,0.2543300739493895,0.0005033992635888399,0.05510067493665498
1714155451910584800,4.394584716796875,-0.07748912274837494,-0.10566263645887375,-0.21066713333129883,-0.026928352192044258,-0.4903492331504822,-0.8711099028587341,0.1289638727903366,-0.10413318872451782,-0.029417991638183594,0.9657145317675001,0.253860051900923,0.00033639276361787686,0.05431746985633521
1714155451920575000,4.404574951171875,-0.09640049934387207,-0.10471934080123901,-0.15206612646579742,-0.02695763297379017,-0.489694207906723,-0.8714773654937744,0.003398064523935318,0.01333010196685791,0.01422339677810669,0.9658689566685752,0.2534981385730292,0.000021149839526666755,0.053251847914403364
1714155451930563800,4.414563720703125,-0.12258181720972061,-0.0410974845290184,-0.12505954504013062,-0.026911351829767227,-0.4887888729572296,-0.8719869256019592,-0.03998318314552307,-0.036479681730270386,0.0003133416175842285,0.9660410415011038,0.25299507923481956,-0.0001750841761037989,0.05251698120992212
1714155451940554000,4.424553955078125,-0.14709648489952087,-0.007163487374782562,-0.15965934097766876,-0.026408592239022255,-0.4876832962036133,-0.8726210594177246,-0.030582986772060394,0.002499610185623169,-0.0020889639854431152,0.9662457071409509,0.252367667231625,-0.00014531080185457498,0.05176530924250002
1714155451950542800,4.43454296875,-0.2247389256954193,0.04790961742401123,-0.10941267758607864,-0.02553243190050125,-0.4862498342990875,-0.8734467029571533,-0.03962259739637375,0.009458452463150024,-0.0019652247428894043,0.96649160958141,0.2515484598223503,0.00010623306472117011,0.05115868967598396
1714155451960533000,4.444532958984375,-0.2598519027233124,0.03724605590105057,0.0015521850436925888,-0.02479563094675541,-0.4839751422405243,-0.8747303485870361,-0.05473317950963974,0.01415705680847168,-0.010798156261444092,0.966835536343352,0.25026923431654363,0.0003609562289270882,0.050932353629955664
1714155451970523000,4.45452294921875,-0.13816125690937042,-0.055548328906297684,0.056702256202697754,-0.025273408740758896,-0.4820556342601776,-0.8757759928703308,-0.0433453693985939,-0.04765322804450989,-0.005678415298461914,0.9670939941860747,0.2492227526587081,0.0001171723059701698,0.051159138437956525
1714155451980512000,4.464511962890625,-0.006814688444137573,-0.04961986839771271,-0.0767010748386383,-0.025752251967787743,-0.48169365525245667,-0.8759612441062927,0.021647635847330093,-0.07557258009910583,0.0008086562156677246,0.9671477272771538,0.2490368660659051,-0.00016863375843992855,0.05104879773198935
1714155451990502000,4.474501953125,-0.022441212087869644,0.01944948174059391,-0.11510398983955383,-0.02520660124719143,-0.4817972779273987,-0.8759201169013977,0.01718047633767128,0.07344156503677368,-0.010539233684539795,0.9671668835237373,0.24907819754538577,-0.0000307103267099592,0.05048052569413328
1714155452000491000,4.484490966796875,-0.08161424845457077,0.036262549459934235,-0.019316477701067924,-0.024585917592048645,-0.4813530147075653,-0.876181960105896,-0.043391987681388855,0.06359785795211792,-0.006981492042541504,0.9672498047718108,0.24881514163269522,0.00020131558510760698,0.050188590291787745
1714155452010481000,4.49448095703125,-0.0773128792643547,-0.0044752927497029305,0.028408167883753777,-0.02453004941344261,-0.4806729853153229,-0.8765567541122437,-0.05100096017122269,-0.001962512731552124,-0.0023647546768188477,0.9673428188477772,0.2484382561229461,0.00022939616525076943,0.050261700743784936
1714155452020470000,4.504469970703125,-0.023587064817547798,-0.025579778477549553,0.007466134149581194,-0.02480917237699032,-0.480228990316391,-0.8767922520637512,-0.02092142030596733,-0.015284925699234009,-0.0010001063346862793,0.96739995119846,0.24820127808129117,0.00009130210540538031,0.050333791771457366
1714155452030460000,4.5144599609375,0.002994213718920946,-0.010018662549555302,-0.003264141734689474,-0.025001591071486473,-0.4801716208457947,-0.8768181800842285,-0.010215694084763527,0.008415669202804565,-0.004559934139251709,0.9674079126287073,0.24817515192888076,-0.00001576512209394698,0.050309404185666075
1714155452040449800,4.52444970703125,-0.0036114915274083614,-0.005922454409301281,0.0022448734380304813,-0.025102704763412476,-0.4801783859729767,-0.8768115639686584,-0.017728719860315323,0.03173786401748657,-0.004459738731384277,0.9674071583645755,0.2481817866298339,-0.00007234429138653492,0.05029122306573898
1714155452050439000,4.53443896484375,-0.025650108233094215,-0.013837901875376701,0.023808956146240234,-0.025303004309535027,-0.4801015853881836,-0.8768478631973267,-0.022090794518589973,0.024535179138183594,0.0018173456192016602,0.9674131715182042,0.24814519261432688,-0.0001614481592825262,0.05035485569232762
1714155452060428800,4.5444287109375,-0.03663724660873413,-0.027570225298404694,0.03297528997063637,-0.025584280490875244,-0.47995057702064514,-0.8769223690032959,-0.014943061396479607,0.0038458704948425293,0.012100040912628174,0.9674263467515242,0.24807000150145214,-0.0002806787429352961,0.050472061378513254
1714155452070418000,4.55441796875,-0.027702659368515015,-0.033958084881305695,0.03366497904062271,-0.0259532630443573,-0.47943034768104553,-0.8771960735321045,-0.0005817748606204987,-0.004013866186141968,0.017241239547729492,0.9674907781871953,0.24779377020256382,-0.00045481797881818074,0.050592874005710116
1714155452080407800,4.56440771484375,-0.019329413771629333,-0.035827890038490295,0.03042231686413288,-0.026528630405664444,-0.4790584444999695,-0.8773820400238037,0.009454043582081795,-0.0014865994453430176,0.02079939842224121,0.9675321942154672,0.24760541687605933,-0.0007293500538210918,0.05072040021662616
1714155452090398000,4.57439794921875,-0.010195890441536903,-0.041659943759441376,0.028558168560266495,-0.027163395658135414,-0.47891056537628174,-0.8774433135986328,0.013934023678302765,-0.0014971792697906494,0.021532118320465088,0.9675416048612192,0.24754245869841418,-0.0010296450566191807,0.05084167482986045
1714155452100386800,4.58438671875,0.001210428075864911,-0.036431893706321716,0.020370282232761383,-0.027684982866048813,-0.47891637682914734,-0.877423882484436,0.014592938125133514,-0.0007742047309875488,0.017972588539123535,0.967532671257999,0.2475609538022528,-0.0012791352075699602,0.05091629286396759
1714155452110377000,4.594376953125,0.022688500583171844,-0.042982205748558044,0.012399373576045036,-0.028120417147874832,-0.47898760437965393,-0.8773711323738098,0.016188040375709534,0.00016677379608154297,0.01618039608001709,0.9675174472337145,0.24761299047062096,-0.0014935246947934428,0.050947235625133584
1714155452120365800,4.60436572265625,0.03558379411697388,-0.04314732179045677,0.013885151594877243,-0.028612954542040825,-0.47914594411849976,-0.8772687911987305,0.019152503460645676,-0.004878133535385132,0.009119987487792969,0.967490364478133,0.24771473869123867,-0.0017397466314236498,0.05095897601361955
1714155452130355700,4.614355712890625,0.027898764237761497,-0.03556876257061958,0.0072119347751140594,-0.02909199707210064,-0.47935751080513,-0.8771374225616455,0.01908222772181034,-0.004971712827682495,0.002534151077270508,0.9674557063672148,0.2478454891693218,-0.0019769328678948817,0.050972901413109874
1714155452140344800,4.6243447265625,0.01690576784312725,-0.02784533053636551,-0.003921942785382271,-0.02943144366145134,-0.47959959506988525,-0.8769937753677368,0.01554594375193119,-0.0005029737949371338,0.004770874977111816,0.967420174079542,0.24798889256732196,-0.002152589324500971,0.050942860299014694
1714155452150334700,4.634334716796875,-0.0038871285505592823,-0.026871144771575928,-0.010318921878933907,-0.029597122222185135,-0.4797886908054352,-0.8768847584724426,0.010462598875164986,-0.004723638296127319,0.001106560230255127,0.9673961781495148,0.24809786749633808,-0.002252872568275695,0.050863559177169046
1714155452160324900,4.644324951171875,-0.027302173897624016,-0.016555657610297203,-0.00844245869666338,-0.029633520171046257,-0.47977253794670105,-0.8768923282623291,0.007065771147608757,-0.01090434193611145,-0.00048804283142089844,0.9674024211480401,0.2480898514824431,-0.002293096071899089,0.05078165626761027
1714155452170313700,4.654313720703125,-0.043970897793769836,-0.0024693997111171484,-0.00839818362146616,-0.02953076735138893,-0.4795660376548767,-0.8770087361335754,0.006551029160618782,-0.016176730394363403,0.006296515464782715,0.9674362552591519,0.24797279168928424,-0.002264899614596059,0.05070813379511326
1714155452180304000,4.664303955078125,-0.047456976026296616,-0.004821237176656723,-0.017896082252264023,-0.029378138482570648,-0.47927504777908325,-0.8771729469299316,0.005681239068508148,-0.017398536205291748,0.00852060317993164,0.9674832480976158,0.2478076324354741,-0.0022167267734562613,0.05062161740342421
1714155452190292700,4.674292724609375,-0.04522477090358734,0.006849001161754131,-0.024232009425759315,-0.02912933938205242,-0.47894102334976196,-0.8773636817932129,0.003921817988157272,-0.011476457118988037,0.004438877105712891,0.9675385259354363,0.24761593066065796,-0.0021271203828812386,0.050508052768124125
1714155452200283000,4.684282958984375,-0.03644033148884773,0.021048709750175476,-0.028451787307858467,-0.028687147423624992,-0.47868868708610535,-0.8775159120559692,-0.0014184452593326569,-0.0004525482654571533,0.0023022890090942383,0.9675849053501476,0.24746368166693497,-0.0019410566292245562,0.050372793332007317
1714155452210272800,4.694272705078125,-0.03277140110731125,0.014654725790023804,-0.02954261749982834,-0.028209391981363297,-0.47846680879592896,-0.8776524066925049,-0.004032433032989502,0.0016296803951263428,0.006436586380004883,0.9676278627105315,0.24732725410659928,-0.0017387579759383619,0.050225865784744333
1714155452220262000,4.704261962890625,-0.031116511672735214,0.01210421696305275,-0.03189738467335701,-0.02782486192882061,-0.4782453179359436,-0.8777853846549988,0.00078628771007061,-0.002986341714859009,0.0038840770721435547,0.967669862594014,0.24719385229349297,-0.0015852507754581368,0.05007580695283957
1714155452230251800,4.714251708984375,-0.03469574451446533,0.014141002669930458,-0.03566695377230644,-0.027470430359244347,-0.47803276777267456,-0.8779123425483704,0.007603483274579048,-0.0025122761726379395,0.0038278698921203613,0.9677113616714608,0.24706624479095002,-0.0014512824860608113,0.049908850897572916
1714155452240241000,4.724240966796875,-0.0385860912501812,0.013633936643600464,-0.03354042023420334,-0.027141746133565903,-0.4778258204460144,-0.8780351877212524,0.010616473853588104,-0.0038483738899230957,0.007353425025939941,0.9677505230025865,0.24694258689155668,-0.0013243744002103784,0.04976544929612688
1714155452250230800,4.734230712890625,-0.03671320155262947,0.006921704858541489,-0.024203844368457794,-0.02688797563314438,-0.4776930510997772,-0.8781152367591858,0.01042374037206173,-0.005278140306472778,0.005983889102935791,0.9677779690021867,0.24686204228352862,-0.0012313767002245565,0.04963212953299591
1714155452260220000,4.744219970703125,-0.031499531120061874,0.009954779408872128,-0.017153924331068993,-0.026685116812586784,-0.4776138961315155,-0.8781644701957703,0.010709160938858986,-0.0029616355895996094,0.007055461406707764,0.9677956477354747,0.2468125332428341,-0.0011535154190725951,0.04953634735236373
1714155452270209800,4.754209716796875,-0.03439891338348389,0.010648799128830433,-0.009770844131708145,-0.026491090655326843,-0.47745823860168457,-0.8782550096511841,0.010698242112994194,0.0033371448516845703,0.007374882698059082,0.9678220548435974,0.24672118593252484,-0.0010728247364485358,0.04947788254449574
1714155452280200000,4.764199951171875,-0.03395336493849754,0.008213604800403118,0.0014117697719484568,-0.026425499469041824,-0.4771784842014313,-0.8784090280532837,0.008237021043896675,0.004125475883483887,0.008047699928283691,0.9678618035304732,0.2465651849477552,-0.0010466720949260048,0.049478663122341886
1714155452290188800,4.774188720703125,-0.032634831964969635,0.0020316087175160646,0.0030837692320346832,-0.02642989717423916,-0.47691601514816284,-0.8785513639450073,0.007371667772531509,0.002550840377807617,0.0062217116355896,0.9678973713109003,0.24642078683470803,-0.0010508448638340984,0.04950003756463604
1714155452300179000,4.784178955078125,-0.020741423591971397,0.0016651577316224575,-0.0001841959310695529,-0.026428736746311188,-0.47672614455223083,-0.8786544799804688,0.0064244624227285385,0.000560373067855835,0.00144195556640625,0.9679236080898401,0.24631617347785748,-0.0010536141124739863,0.049507712802562095
1714155452310167800,4.794167724609375,-0.009789971634745598,0.006382947787642479,-0.0068856412544846535,-0.026320071890950203,-0.47664374113082886,-0.8787024021148682,0.004347413778305054,0.0012714564800262451,-0.0012413859367370605,0.9679368179098015,0.24626769603171367,-0.0010040779783706561,0.04949147695677081
1714155452320158000,4.804157958984375,0.002925556618720293,0.002912848722189665,-0.00890884455293417,-0.026140691712498665,-0.4766872227191925,-0.8786842226982117,-0.0007147770375013351,0.0017421245574951172,-0.00194627046585083,0.967934126375266,0.24628652446674307,-0.0009204475782711476,0.04945221292410158
1714155452330148000,4.814148193359375,0.0002713976427912712,0.001300837262533605,-0.012998328544199467,-0.025987658649683,-0.4767894148826599,-0.8786333203315735,-0.0029124915599823,-0.0006581246852874756,-0.0019208788871765137,0.9679237001364248,0.24633842814618076,-0.0008523011938466971,0.04939897813899352
1714155452340137000,4.824136962890625,-0.0035089594312012196,0.008932125754654408,-0.009353525936603546,-0.02579273283481598,-0.4768466055393219,-0.8786080479621887,-0.0049384720623493195,-0.0010586678981781006,-0.0012900233268737793,0.9679204137398519,0.24636436420784205,-0.0007660448981090043,0.0493370683095749
1714155452350127000,4.834127197265625,-0.016566438600420952,0.008393634110689163,-0.008993267081677914,-0.025598110631108284,-0.47677117586135864,-0.8786546587944031,-0.008993566036224365,-0.003117769956588745,-0.0015791058540344238,0.9679343830314416,0.24631730317223735,-0.0006776130794712513,0.049298891865647926
1714155452360116000,4.844115966796875,-0.024546867236495018,0.012432318180799484,-0.01540349517017603,-0.025393987074494362,-0.4765909016132355,-0.8787583708763123,-0.014233088120818138,-0.004488229751586914,-0.002192556858062744,0.9679638369799533,0.24621223541484452,-0.0005907936849358208,0.04924664647244714
1714155452370105900,4.85410595703125,-0.03129872679710388,0.022199993953108788,-0.014802154153585434,-0.025102663785219193,-0.4763650596141815,-0.8788892030715942,-0.018125485628843307,-0.0038900673389434814,0.0008527040481567383,0.9680009593297407,0.2460796522887541,-0.0004638753359506413,0.049180419044633286
1714155452380096000,4.864095947265625,-0.04123391583561897,0.019828716292977333,-0.01050088182091713,-0.02481183037161827,-0.47605031728744507,-0.8790679574012756,-0.01971331797540188,-0.0026484131813049316,0.0017333626747131348,0.9680492601080913,0.24589818682285386,-0.0003335937558516938,0.049138142573858984
1714155452390084900,4.8740849609375,-0.044475410133600235,0.016224658116698265,-0.0018552629044279456,-0.024605359882116318,-0.4756682217121124,-0.8792805671691895,-0.017371568828821182,-0.0023133456707000732,0.0006947517395019531,0.9681047705989427,0.2456820235439826,-0.00024085254179386298,0.04912654719610117
1714155452400075000,4.884074951171875,-0.0406002439558506,0.018144533038139343,-0.006201009266078472,-0.024456219747662544,-0.4752623736858368,-0.8795041441917419,-0.012470049783587456,-0.002169877290725708,0.0030546188354492188,0.9681621538212558,0.24545444919451592,-0.00017350224485614824,0.04913388910837506
1714155452410064000,4.89406396484375,-0.02429317496716976,0.008849834091961384,-0.003082780633121729,-0.024334223940968513,-0.4749775826931,-0.8796613812446594,-0.009219856932759285,-0.0007914304733276367,0.005348026752471924,0.9682030637229595,0.245294307457097,-0.00012013366387355305,0.049127915543218464
1714155452420054000,4.904053955078125,-0.01465306431055069,0.002511510392650962,0.00008345162495970726,-0.02433003857731819,-0.4748215079307556,-0.8797457814216614,-0.004966838285326958,0.0026382803916931152,0.003341972827911377,0.9682247984076601,0.24520829590636226,-0.0001220629851703247,0.04912898546090715
1714155452430043000,4.91404296875,0.0015535498969256878,0.0025961988139897585,0.006508327554911375,-0.024409392848610878,-0.4748097360134125,-0.8797498941421509,-0.0025986656546592712,0.010316967964172363,0.004749894142150879,0.968224764194069,0.2452040403008207,-0.00015766351063557088,0.04915107810226541
1714155452440033000,4.924032958984375,0.0037719630636274815,-0.004976766183972359,0.005585009697824717,-0.024550773203372955,-0.47486281394958496,-0.8797173500061035,-0.001358652487397194,0.015588492155075073,0.006365299224853516,0.9682146016994538,0.24523719887220977,-0.00022016870391535284,0.04918591455265363
1714155452450023000,4.93402294921875,0.006180472206324339,-0.018957030028104782,0.01233545783907175,-0.024845175445079803,-0.4749442934989929,-0.8796650767326355,-0.00019449740648269653,0.01475447416305542,0.0016591548919677734,0.9681989138840081,0.24529031220123418,-0.0003589982710319045,0.049227407087091314
1714155452460012000,4.944011962890625,0.00009115459397435188,-0.01208474300801754,0.025024620816111565,-0.02523396536707878,-0.47503527998924255,-0.8796048760414124,0.0013844780623912811,0.011152803897857666,0.00010353326797485352,0.9681784314585697,0.24535134950161944,-0.0005321419239741245,0.049324262108885304
1714155452470002000,4.954001953125,-0.01125902496278286,-0.009844491258263588,0.03025893121957779,-0.025588518008589745,-0.47499528527259827,-0.8796162605285645,0.0005030669271945953,0.011540085077285767,-0.002418041229248047,0.9681741351670188,0.2453393968962606,-0.0006795290636075757,0.04946762254438001
1714155452479991000,4.963990966796875,-0.022796904668211937,-0.012045327574014664,0.03885481506586075,-0.02595413289964199,-0.4748658537864685,-0.8796753883361816,-0.002946017310023308,0.005322396755218506,-0.003304898738861084,0.9681806151442778,0.24527863607978803,-0.0008279436787882073,0.04963933057788329
1714155452489981000,4.97398095703125,-0.023202236741781235,-0.012703129090368748,0.038217056542634964,-0.026320720091462135,-0.4746808409690857,-0.8797643184661865,-0.002197958528995514,0.00007149577140808105,-0.0017663836479187012,0.9681940067298331,0.24518743877631796,-0.00097510614149008,0.04982419877336032
1714155452499970800,4.983970703125,-0.027341587468981743,-0.014703694730997086,0.037914521992206573,-0.02664213255047798,-0.47442546486854553,-0.8798924088478088,0.0005343426018953323,0.0031425058841705322,0.0010167360305786133,0.9682179419334653,0.24505626817164053,-0.00110295587632705,0.05000143369541165
1714155452509960000,4.9939599609375,-0.02153344638645649,-0.008526226505637169,0.03591601923108101,-0.02691664546728134,-0.47414857149124146,-0.8800333142280579,-0.0013884101063013077,0.002011120319366455,0.0024088025093078613,0.9682454603293578,0.24491200929502752,-0.0012088619637864277,0.050172498145539715
1714155452519949800,5.00394970703125,-0.010139111429452896,-0.008169363252818584,0.033187076449394226,-0.027146540582180023,-0.47389960289001465,-0.8801603317260742,-0.0019061975181102753,-0.00031304359436035156,0.005923271179199219,0.9682698039645887,0.24478186710065647,-0.001293174844945906,0.050335134059565495
1714155452529939000,5.01393896484375,0.003665596479550004,-0.019411098212003708,0.027893977239727974,-0.0273971576243639,-0.4737650156021118,-0.8802250027656555,-0.0016403160989284515,0.001215606927871704,0.002783656120300293,0.9682801472407205,0.24471523826628303,-0.0013952268371895653,0.0504570487360327
1714155452539928800,5.0239287109375,0.010892616584897041,-0.01780361495912075,0.02004537545144558,-0.02765287272632122,-0.4737439453601837,-0.8802283406257629,0.002735268324613571,0.004108935594558716,-0.0009056329727172852,0.9682762816820697,0.24471116496216,-0.001504493668170976,0.05054804578309285
1714155452549919000,5.0339189453125,0.008995753712952137,-0.012301524169743061,0.014551273547112942,-0.027835147455334663,-0.4737469553947449,-0.8802210092544556,0.005130067467689514,0.006171882152557373,0.0011926889419555664,0.9682711913644727,0.24471820458147547,-0.0015829499941813815,0.05060861222031702
1714155452559907800,5.043907958984375,-0.003637483809143305,-0.017302406951785088,0.015558482147753239,-0.02804926596581936,-0.473725825548172,-0.8802255988121033,0.0037572719156742096,-0.0007767677307128906,0.0047220587730407715,0.9682688342244236,0.24471287923067445,-0.0016762050918196804,0.05067822980871149
1714155452569898000,5.05389794921875,-0.007231047376990318,-0.017057929188013077,0.009651057422161102,-0.02828250080347061,-0.47368156909942627,-0.8802419304847717,0.004524566233158112,-0.0066498517990112305,0.008141100406646729,0.9682707488431006,0.24469539715017574,-0.001786333622334253,0.05072263609937391
1714155452579886800,5.063886962890625,-0.007877662777900696,-0.012581954710185528,0.006806002464145422,-0.028422970324754715,-0.47359511256217957,-0.8802839517593384,0.005153315141797066,-0.006080180406570435,0.008839249610900879,0.9682805934503398,0.24465196115113,-0.0018562054679795732,0.050742111823635964
1714155452589877000,5.073876953125,-0.0073112607933580875,-0.007276139222085476,-0.004026205278933048,-0.028526313602924347,-0.47351691126823425,-0.8803226947784424,0.0023880060762166977,-0.007546931505203247,0.008832216262817383,0.9682909508007771,0.2446119489324036,-0.0019136060898402706,0.05073435499988202
1714155452599865900,5.083865966796875,0.001791955903172493,-0.006862816400825977,-0.00692319218069315,-0.028582654893398285,-0.47353866696357727,-0.8803091049194336,0.00017078779637813568,-0.00953933596611023,0.008177757263183594,0.9682891665119894,0.24462549668830197,-0.0019502981640931224,0.050701479052608994
1714155452609856000,5.09385595703125,0.009116606786847115,-0.007864165119826794,-0.006641828455030918,-0.028629234060645103,-0.47359132766723633,-0.8802793025970459,0.0011023785918951035,-0.00664857029914856,0.0068509578704833984,0.9682839828347396,0.24465571404835368,-0.0019849777382303316,0.05065320215096948
1714155452619850200,5.103850341796875,0.021213484928011894,0.0021599731408059597,-0.015077125281095505,-0.02858169563114643,-0.4736999571323395,-0.8802223801612854,-0.0010813921689987183,-0.0027099549770355225,0.0025521516799926758,0.9695933166421866,0.24427765345642483,-0.014739012363655032,0
1714155452629839000,5.113839111328125,0.015173966996371746,0.002336540725082159,-0.022343028336763382,-0.028433803468942642,-0.4738289415836334,-0.8801577687263489,-0.005715368315577507,0.0030342042446136475,-0.001983344554901123,0.9695766714040751,0.24434711759108704,-0.01468359269528802,-0.00008171786546093407
1714155452639829500,5.12382958984375,-0.002624470740556717,-0.0011055951472371817,-0.017083551734685898,-0.028293270617723465,-0.47392627596855164,-0.8801099061965942,-0.008510930463671684,0.004840552806854248,-0.0012377500534057617,0.969564334334003,0.2443989519929506,-0.014636036266209004,-0.00017980312074757088
1714155452649818400,5.133818359375,-0.024964822456240654,0.004296094179153442,-0.01132100261747837,-0.028172699734568596,-0.4738803505897522,-0.8801384568214417,-0.008051669225096703,0.0029025375843048096,0.0030328035354614258,0.9695716790145746,0.24437221232860545,-0.014594058830152133,-0.00026040878688306235
1714155452659808500,5.14380859375,-0.03998105973005295,0.00006486428901553154,-0.009438414126634598,-0.02806517668068409,-0.4736761152744293,-0.8802518248558044,-0.00576356053352356,-0.0004907846450805664,0.006075859069824219,0.969600907260028,0.2442587963393606,-0.014550665323300906,-0.0003101205770642268
1714155452669798400,5.15379833984375,-0.05338272079825401,0.0002464917488396168,-0.009676900692284107,-0.027991067618131638,-0.4733589291572571,-0.8804247975349426,-0.005044212564826012,-0.00218123197555542,0.005806326866149902,0.9696454389867041,0.24408318000018742,-0.014525852367817156,-0.00036623825525106124
1714155452679787500,5.16378759765625,-0.05221572518348694,-0.004413241520524025,-0.010197814553976059,-0.027959400787949562,-0.47301679849624634,-0.8806096315383911,-0.004770705476403236,-0.0002650916576385498,0.006342113018035889,0.9696930769403996,0.2438939211374533,-0.014523290321903866,-0.0004240933970034444
1714155452689777400,5.17377734375,-0.041462842375040054,-0.00829080305993557,-0.007506357505917549,-0.027962883934378624,-0.47268548607826233,-0.8807874321937561,-0.003653327003121376,0.0010057687759399414,0.004582047462463379,0.9697388768515078,0.24371071479125067,-0.014538540226106194,-0.0004806735282316399
1714155452699766300,5.183766357421875,-0.030746812000870705,-0.007797053083777428,-0.014527514576911926,-0.028015829622745514,-0.4724109172821045,-0.8809330463409424,-0.0038140062242746353,0.0010516643524169922,0.002240419387817383,0.9697763621332672,0.24355887922882466,-0.014579226986008349,-0.0005365223370921574
1714155452709756400,5.19375634765625,-0.022307947278022766,-0.004176486283540726,-0.012447386980056763,-0.028069380670785904,-0.4721481502056122,-0.8810722231864929,-0.006674883887171745,0.004969805479049683,-0.00004655122756958008,0.9698122408325142,0.24341327629351708,-0.01462442721240774,-0.0006090819461611469
1714155452719746300,5.203746337890625,-0.008143658749759197,-0.005521115846931934,-0.015472471714019775,-0.028099708259105682,-0.47198519110679626,-0.8811585307121277,-0.010886499658226967,0.007705986499786377,0.001214742660522461,0.9698344472537471,0.24332250747791687,-0.014658827973924305,-0.0006854379579338266
1714155452729735400,5.2137353515625,-0.007739497814327478,-0.011171811260282993,-0.013787822797894478,-0.028168823570013046,-0.4719266891479492,-0.8811876773834229,-0.012984134256839752,0.004427909851074219,0.002952873706817627,0.9698418959933489,0.24328937774860826,-0.014711993924926664,-0.0007558756580635373
1714155452739725300,5.223725341796875,-0.0012283353134989738,-0.012423496693372726,-0.018057668581604958,-0.028232017531991005,-0.47193166613578796,-0.8811829686164856,-0.010006511583924294,0.002021968364715576,0.0002473592758178711,0.9698406545474293,0.24329092938730035,-0.014765655353489874,-0.0008398352670918319
1714155452749714400,5.23371435546875,0.0051764072850346565,-0.013220581226050854,-0.022782716900110245,-0.02828957885503769,-0.47201007604599,-0.8811390995979309,-0.00611899234354496,0.0024818480014801025,-0.0011545419692993164,0.969829147091671,0.243332503125124,-0.014823307051783726,-0.000950492907288561
1714155452759704300,5.243704345703125,0.008273930288851261,-0.007606104947626591,-0.018802888691425323,-0.028308212757110596,-0.4721168875694275,-0.8810812830924988,-0.0071379560977220535,0.0010170042514801025,-0.0018684864044189453,0.9698141417797808,0.24338960826749365,-0.014860879546811387,-0.001060786540889272
1714155452769694200,5.253694091796875,0.010421822778880596,-0.00843887496739626,-0.013436085544526577,-0.028319669887423515,-0.4722194969654083,-0.8810259103775024,-0.009354282170534134,0.0000820159912109375,0.0001818537712097168,0.9697997253878106,0.24344488904614892,-0.014886877268310169,-0.0011396998419318516
1714155452779683300,5.263683349609375,0.005608425475656986,-0.011732140555977821,-0.012028604745864868,-0.028369136154651642,-0.4722997546195984,-0.8809813261032104,-0.008999641984701157,-0.001134723424911499,-5.960464477539063e-8,0.969788210597624,0.243488168338378,-0.0149278722049587,-0.0012004937792691461
1714155452789673200,5.273673095703125,-0.0019878153689205647,-0.008185075595974922,-0.014754284173250198,-0.028433211147785187,-0.4722846448421478,-0.8809873461723328,-0.006478901952505112,-0.0019432604312896729,-0.00043654441833496094,0.9697896524511034,0.24347884714956153,-0.0149789895382852,-0.0012726514554295548
1714155452799662300,5.283662353515625,-0.011014865711331367,-0.0030536975245922804,-0.013209383934736252,-0.028477277606725693,-0.47217878699302673,-0.8810427188873291,-0.006724752485752106,0.000300675630569458,-0.0017087459564208984,0.9698039186593943,0.2434196469837342,-0.015017362887273705,-0.001336204100793048
1714155452809652200,5.29365234375,-0.015894737094640732,0.004824998322874308,-0.008944597095251083,-0.02850445732474327,-0.4720340967178345,-0.8811193704605103,-0.009718811139464378,0.001514047384262085,-0.001876235008239746,0.9698235851834985,0.24333944749860442,-0.01504131563016276,-0.0013774758885452265
1714155452819641300,5.303641357421875,-0.022475939244031906,0.0051277996972203255,-0.01494283601641655,-0.028476376086473465,-0.4718409478664398,-0.881223738193512,-0.011165963485836983,-0.0017613768577575684,0.0006390213966369629,0.9698504441403248,0.24323245859332987,-0.015037173515656822,-0.0014209516340192713
1714155452829631200,5.31363134765625,0.0487913154065609,-0.08085688948631287,-0.0005986504256725311,-0.028616003692150116,-0.4717850685119629,-0.8812491297721863,-0.008645961061120033,-0.0009017288684844971,-0.0013344883918762207,0.9698569163278167,0.24320084209722276,-0.015126031732544098,-0.0014888302638069173
1714155452839621400,5.323621337890625,0.4141058921813965,0.0966462641954422,0.3330298960208893,-0.031086089089512825,-0.47562646865844727,-0.8790979385375977,-0.002605317160487175,0.00394672155380249,-0.004279136657714844,0.9693030847485454,0.2453318189058533,-0.016227837350173267,-0.0007607974549623947
1714155452849610200,5.3336103515625,-0.057581622153520584,-0.08121109008789062,0.18422618508338928,-0.03225039690732956,-0.47608840465545654,-0.8788058757781982,-0.00931454822421074,0.020903438329696655,0.018790006637573242,0.9692278599911068,0.2456098063514323,-0.0165196065462377,0.00046388568401592445
1714155452859600400,5.343600341796875,0.046819884330034256,-0.19673368334770203,0.09358497709035873,-0.03414236009120941,-0.47633692622184753,-0.8785997033119202,-0.09801401197910309,0.034610211849212646,0.050520479679107666,0.9691743040140328,0.24576178177919775,-0.01735794300444911,0.0010103569374250027
1714155452869589200,5.35358935546875,-0.08359372615814209,-0.12972988188266754,-0.1127420961856842,-0.03556802496314049,-0.4760266840457916,-0.8787112832069397,0.012939240783452988,-0.08305537700653076,0.05115091800689697,0.9692032965652702,0.2455898872985696,-0.018165082035570115,0.0007262286268214652
1714155452879579400,5.363579345703125,-0.04731561616063118,-0.04945315420627594,-0.17087437212467194,-0.0355219803750515,-0.4755026698112488,-0.8789967894554138,0.1270136833190918,0.000160902738571167,0.026106834411621094,0.9692771860676234,0.24528456576614135,-0.018359895470412703,-0.00014203317177305386
1714155452889569300,5.3735693359375,-0.04398522526025772,-0.04674685001373291,-0.11755010485649109,-0.03521505370736122,-0.47514379024505615,-0.879203200340271,0.026212364435195923,0.016510337591171265,0.030890822410583496,0.9693300757224603,0.2450715543655182,-0.018393744849896677,-0.0009061949312259843
1714155452899558400,5.383558349609375,-0.04703507944941521,0.02540084719657898,-0.1472235769033432,-0.03475053235888481,-0.47483038902282715,-0.8793910145759583,-0.05010359734296799,0.02642032504081726,0.011654198169708252,0.9693777082313468,0.24488560383111238,-0.018317959912474736,-0.001558918569947651
1714155452909548300,5.39354833984375,-0.09043128788471222,0.14204277098178864,-0.18201790750026703,-0.03315063938498497,-0.4742856025695801,-0.879746675491333,-0.03191284090280533,0.04763457179069519,-0.007017850875854492,0.9694680197027972,0.24456990486351082,-0.017669824033327085,-0.0022693316893259152
1714155452919537400,5.403537353515625,-0.21682730317115784,0.08620453625917435,-0.1737746149301529,-0.03110332041978836,-0.47285792231559753,-0.8805895447731018,-0.02562885731458664,0.009082227945327759,-0.016566157341003418,0.9696829439235413,0.2437668006738316,-0.01682174352487642,-0.003118133581681476
