time,seconds_elapsed,rotationRateX,rotationRateY,rotationRateZ,gravityX,gravityY,gravityZ,accelerationX,accelerationY,accelerationZ,quaternionW,quaternionX,quaternionY,quaternionZ
1714155361165036800,0.048036865234375,-0.007914254441857338,-0.08031386882066727,-0.11797687411308289,-0.1727658212184906,-0.22505943477153778,-0.9589057564735413,-0.006006181240081787,-0.016029492020606995,-0.013246893882751465,0.9896731936539009,0.1137039166782288,-0.08728427972904805,-5.551115123125783e-17
1714155361175027000,0.05802685546875,0.009965676814317703,-0.07091184705495834,-0.12206189334392548,-0.17332805693149567,-0.2253866195678711,-0.9587274193763733,-0.007748037576675415,-0.0070505887269973755,-0.008130490779876709,0.9896279296055841,0.11381863213167548,-0.08764478413488666,-0.0006299207748759472
1714155361185015800,0.068015869140625,0.011616090312600136,-0.07067561894655228,-0.1155916154384613,-0.17374897003173828,-0.22576716542243958,-0.9585616588592529,-0.005053579807281494,0.0034465491771698,-0.005137622356414795,0.9895854101591826,0.11396040225928589,-0.08793286399196683,-0.0012512854367285609
1714155361195006000,0.078005859375,0.011589991860091686,-0.06845614314079285,-0.11565153300762177,-0.174237921833992,-0.22611378133296967,-0.9583911895751953,-0.002504676580429077,0.00351850688457489,-0.009351670742034912,0.9895414825819823,0.1140863411640352,-0.08825361214019792,-0.001855153507839935
1714155361204994800,0.087994873046875,0.007574796676635742,-0.06552720069885254,-0.10840021073818207,-0.1747860163450241,-0.22648000717163086,-0.9582049250602722,0.0005305856466293335,0.00032941997051239014,-0.009980499744415283,0.9894931580338667,0.11422434669276751,-0.08860212930159991,-0.0024355111803024687
1714155361214985000,0.09798486328125,0.0011818786151707172,-0.07145912200212479,-0.1038890853524208,-0.17529860138893127,-0.22686710953712463,-0.9580196738243103,0.002202853560447693,-0.008087784051895142,-0.011386394500732422,0.9894448371020116,0.11437492721923101,-0.08892991515315701,-0.0029896834107539516
1714155361224973800,0.107973876953125,0.006745115853846073,-0.0668763592839241,-0.11053227633237839,-0.1757069230079651,-0.22722455859184265,-0.9578601717948914,0.004457488656044006,-0.01038534939289093,-0.010401487350463867,0.9894026128390505,0.11450772121289478,-0.08920706583292078,-0.0035652070039309536
1714155361234967000,0.117967041015625,0.01226718071848154,-0.052302468568086624,-0.10570263117551804,-0.1759980320930481,-0.22768163681030273,-0.9576981663703918,0.003787323832511902,0.0003714561462402344,-0.009358108043670654,0.9893680418876817,0.11506417837462678,-0.08894467227499497,-5.551115123125783e-17
1714155361244957000,0.12795703125,0.011219119653105736,-0.04899216070771217,-0.0922926813364029,-0.1762589067220688,-0.2281169593334198,-0.957546591758728,0.0007065236568450928,0.002592042088508606,-0.007907509803771973,0.9893295272172822,0.1152417036247691,-0.0891406911435542,-0.0005211775999161561
1714155361254946000,0.137946044921875,0.017192058265209198,-0.054477207362651825,-0.07560611516237259,-0.17659921944141388,-0.22842824459075928,-0.957409679889679,0.0039460062980651855,-0.0012928396463394165,-0.004000842571258545,0.9892946868118941,0.11536303366131236,-0.08936743656218905,-0.0009632557028208533
1714155361264936000,0.14793603515625,0.026673870161175728,-0.05044970661401749,-0.07066868245601654,-0.17695970833301544,-0.2286481261253357,-0.9572905898094177,0.012698844075202942,-0.0037584900856018066,-0.0028228759765625,0.9892642420547314,0.11544400322284398,-0.08959562868363413,-0.001333114650206857
1714155361274925000,0.157925048828125,0.04756530374288559,-0.05546177923679352,-0.06748060882091522,-0.17729829251766205,-0.22899872064590454,-0.9571441411972046,0.018454283475875854,-0.0016684085130691528,-0.00231325626373291,0.9892265546514207,0.11559279485595453,-0.08981223269243002,-0.001691274946717003
1714155361284915000,0.1679150390625,0.054098621010780334,-0.06502039730548859,-0.06643518805503845,-0.17767749726772308,-0.22953449189662933,-0.9569454789161682,0.021625861525535583,0.00478777289390564,0.0009365677833557129,0.989175695999672,0.11583744200700405,-0.09004973356529833,-0.002039555879050803
1714155361294904000,0.177904052734375,0.05887313559651375,-0.06383023411035538,-0.06764399260282516,-0.1780833750963211,-0.23024490475654602,-0.9566993117332458,0.022642090916633606,0.00787857174873352,0.001285552978515625,0.9891127577415058,0.11617110924049275,-0.09030287404736768,-0.0023933605575053307
1714155361304894000,0.18789404296875,0.05693180114030838,-0.0674300268292427,-0.06752201914787292,-0.17846985161304474,-0.23099438846111298,-0.9564465880393982,0.02417297661304474,0.007758289575576782,0.00004094839096069336,0.9890479008724162,0.11652509185651733,-0.0905461345176829,-0.0027422223172384186
1714155361314883000,0.197883056640625,0.056238312274217606,-0.07182663679122925,-0.06398667395114899,-0.17892687022686005,-0.23157227039337158,-0.9562214612960815,0.022432729601860046,0.002934575080871582,-0.005570530891418457,0.988990003090658,0.11679150020698308,-0.09082412427159858,-0.0030885171100291098
1714155361324873000,0.207873046875,0.05597865581512451,-0.06760553270578384,-0.07271918654441833,-0.17940481007099152,-0.23212149739265442,-0.9559987187385559,0.021720468997955322,0.003041297197341919,-0.013651549816131592,0.9889325320042681,0.11704341814189592,-0.09111249089309126,-0.0034320975986052438
1714155361334862000,0.217862060546875,0.047564662992954254,-0.054531536996364594,-0.07782553136348724,-0.17975114285945892,-0.2327180802822113,-0.9557886123657227,0.017672285437583923,0.00891740620136261,-0.019553184509277344,0.9888780353638145,0.1173142567159946,-0.0913404013269405,-0.0038268545222159833
1714155361344852000,0.22785205078125,0.032144587486982346,-0.038408491760492325,-0.07842793315649033,-0.1798790544271469,-0.2332431674003601,-0.9556365013122559,0.008538097143173218,0.011334598064422607,-0.02146005630493164,0.9888379207622461,0.11754671995948149,-0.09145769174385958,-0.00423072435333377
1714155361354841000,0.237841064453125,0.015879064798355103,-0.026361949741840363,-0.06818141788244247,-0.17982202768325806,-0.2335890531539917,-0.9555627703666687,0.0010805726051330566,0.007133349776268005,-0.014987766742706299,0.9888175883345502,0.11768820400131424,-0.09147732853623178,-0.004617086424992423
1714155361364831000,0.2478310546875,-0.0038137324154376984,-0.018426528200507164,-0.07027606666088104,-0.17967265844345093,-0.2336665838956833,-0.9555718898773193,-0.0014644414186477661,-0.0007847249507904053,-0.012537240982055664,0.9888181049294806,0.11769511208468417,-0.09144347592861186,-0.004967376987214334
1714155361374820000,0.257820068359375,-0.024055354297161102,-0.002321061911061406,-0.07968874275684357,-0.1794024109840393,-0.23353175818920135,-0.9556556344032288,-0.0026196837425231934,-0.005619257688522339,-0.01449817419052124,0.9888372975967696,0.11758929966898085,-0.09135063650865427,-0.0053551501999737905
1714155361384810000,0.26781005859375,-0.041768357157707214,0.010285810567438602,-0.08638633042573929,-0.17896440625190735,-0.23323272168636322,-0.9558107852935791,-0.006231516599655151,-0.005201131105422974,-0.0182950496673584,0.988874089136117,0.11739428171000874,-0.09117670335139753,-0.005793099143167002
1714155361394799000,0.277799072265625,-0.05376270413398743,0.023996029049158096,-0.09650793671607971,-0.1783970594406128,-0.23286405205726624,-0.9560067057609558,-0.010918751358985901,-0.008835181593894958,-0.01770240068435669,0.9889206904132825,0.11716074895780615,-0.09093957093801422,-0.006260587263644424
1714155361404789000,0.2877890625,-0.05216129124164581,0.024514812976121902,-0.09722372144460678,-0.17776161432266235,-0.23241987824440002,-0.9562331438064575,-0.01364465057849884,-0.010011762380599976,-0.01306617259979248,0.9889746295985513,0.1168855428313938,-0.09067085296724817,-0.006761881689850979
1714155361414778000,0.297778076171875,-0.02855023555457592,0.029332738369703293,-0.10021551698446274,-0.17710451781749725,-0.23203635215759277,-0.9564481973648071,-0.009342625737190247,-0.010334283113479614,-0.002993941307067871,0.9890254900267558,0.1166418101585998,-0.09039135169604479,-0.007262324330895076
1714155361424768000,0.30776806640625,-0.005337752867490053,0.022379225119948387,-0.10089050233364105,-0.17656517028808594,-0.23184865713119507,-0.95659339427948,-0.0015506744384765625,-0.0075770169496536255,0.0052536725997924805,0.9890583765719122,0.11649996443486019,-0.09017238528443795,-0.00775251088987855
1714155361434758000,0.3177578125,0.011461733840405941,0.020603163167834282,-0.1033691018819809,-0.17612570524215698,-0.23195038735866547,-0.9566497802734375,0.006432712078094482,-0.0007156431674957275,0.0083160400390625,0.9890687041474981,0.11650700479565458,-0.09000689839637971,-0.008241155027031322
1714155361444747000,0.3277470703125,0.008562670089304447,0.006825830787420273,-0.1076354905962944,-0.17576643824577332,-0.23222975432872772,-0.956648051738739,0.009659260511398315,0.007605105638504028,0.011518657207489014,0.9890639403963529,0.11660347432530604,-0.0898866074003294,-0.008750867602317969
1714155363682401500,2.565401611328125,0.0890575647354126,0.2549421489238739,0.10658127069473267,-0.13351905345916748,-0.5460076332092285,-0.8270721435546875,0.02519690990447998,-0.24427556991577148,0.0131683349609375,0.9297536897338856,0.29404240639474594,-0.0017293922948296708,0.22157219413784718
1714155363692390400,2.575390380859375,0.08749349415302277,0.21727468073368073,0.04817681014537811,-0.1319705843925476,-0.5465986132621765,-0.8269303441047668,0.028821170330047607,-0.2344377636909485,0.005320847034454346,0.9295462888554006,0.29416733894759595,-0.0006426830508830944,0.22228126662586575
1714155363702380500,2.585380615234375,0.11895165592432022,0.21374279260635376,-0.029035817831754684,-0.13026976585388184,-0.5474402904510498,-0.826643168926239,0.03774045407772064,-0.2045128345489502,-0.006242573261260986,0.9293832710297683,0.2944116394771886,0.0004442077004343653,0.22263971015310735
1714155363712369400,2.595369384765625,0.16065993905067444,0.240154430270195,-0.07316679507493973,-0.12807901203632355,-0.548632025718689,-0.8261952996253967,0.04082925617694855,-0.15601885318756104,0.005898118019104004,0.9292440409306592,0.29478691710332716,0.0017377340122199103,0.2227177720628524
1714155363722359300,2.605359375,0.13370093703269958,0.24264048039913177,-0.09540658444166183,-0.12562622129917145,-0.5500209927558899,-0.8256482481956482,0.03985656797885895,-0.13976788520812988,0.017161309719085693,0.9291061800398913,0.2952387802980514,0.0031539313882380238,0.22267891472907664
1714155363732349400,2.615349365234375,0.09515487402677536,0.19067874550819397,-0.08138450980186462,-0.12333130836486816,-0.5510212182998657,-0.8253272175788879,0.04859374463558197,-0.13858455419540405,0.02413398027420044,0.9290431523379051,0.295494254704952,0.00441946568061323,0.2225814183131114
1714155363742338300,2.62533837890625,0.06324242800474167,0.16472437977790833,-0.05780681222677231,-0.12150614708662033,-0.5517849922180176,-0.8250876665115356,0.055984899401664734,-0.12890958786010742,0.039153218269348145,0.9289935178468527,0.29568010416572044,0.005426914880584929,0.2225196776014514
1714155363752328400,2.635328369140625,0.0011079495307058096,0.16029447317123413,-0.05330580472946167,-0.11985669285058975,-0.5520994663238525,-0.8251184821128845,0.059218257665634155,-0.12198805809020996,0.05731147527694702,0.9290030258246897,0.29563665300835174,0.0063025071877853,0.2225143415126055
1714155363762317300,2.6453173828125,-0.022030765190720558,0.13089744746685028,-0.05747178569436073,-0.11834774911403656,-0.5520522594451904,-0.8253678679466248,0.05696163326501846,-0.12185215950012207,0.055882394313812256,0.9290758462064064,0.29540875993672966,0.007051950702012255,0.2224906014098133
1714155363772307500,2.655307373046875,-0.01133018545806408,0.10987125337123871,-0.07307657599449158,-0.11702008545398712,-0.5519713163375854,-0.8256112933158875,0.04647868871688843,-0.10150152444839478,0.05713289976119995,0.9291685633014816,0.29518712191808755,0.007676504926258196,0.2223769383462154
1714155363782296300,2.66529638671875,-0.0031706313602626324,0.09693308174610138,-0.1005830392241478,-0.11572800576686859,-0.5520145297050476,-0.825764536857605,0.0430046021938324,-0.06462365388870239,0.04983985424041748,0.9292687637753786,0.2950416099673985,0.008257807944091075,0.22213045132892772
1714155363792286500,2.675286376953125,-0.0284927636384964,0.09319959580898285,-0.10121554136276245,-0.11437772959470749,-0.5520305037498474,-0.8259419202804565,0.03666471689939499,-0.04022413492202759,0.04496657848358154,0.9293964913754973,0.2948744732293961,0.00883681481660202,0.2217952940288098
1714155363802275300,2.685275390625,-0.03338845819234848,0.07094915211200714,-0.0890638679265976,-0.11318221688270569,-0.5518521666526794,-0.8262256979942322,0.029976025223731995,-0.03980737924575806,0.04482316970825195,0.9295472737305407,0.2946189122020939,0.009318498344236814,0.22148304422886606
1714155363812265500,2.695265380859375,-0.004922193009406328,0.06847614049911499,-0.11677059531211853,-0.11204677075147629,-0.5519241690635681,-0.8263323903083801,0.03015284240245819,-0.044282495975494385,0.04561644792556763,0.9296689121125694,0.29451345485075614,0.009779133604550044,0.2210925820489426
1714155363822254300,2.70525439453125,-0.0018773474730551243,0.08495578169822693,-0.13326561450958252,-0.11064701527357101,-0.5522007942199707,-0.8263362050056458,0.03149966895580292,-0.0365900993347168,0.03840285539627075,0.9297909186163741,0.2944902262192918,0.010363724580208553,0.22058322451529655
1714155363832244500,2.715244384765625,-0.021299779415130615,0.08336055278778076,-0.07749476283788681,-0.10930883884429932,-0.5524265170097351,-0.8263634443283081,0.022303208708763123,-0.03883630037307739,0.024666666984558105,0.9298928820821518,0.29444606703545206,0.01094518286103896,0.220183839384594
1714155363842233300,2.7252333984375,-0.07270470261573792,0.08881816267967224,-0.02870079129934311,-0.10828100144863129,-0.5523453950881958,-0.8265529274940491,0.017582759261131287,-0.047050416469573975,0.022567391395568848,0.9299744401740004,0.2942673185111063,0.011413542923400175,0.22005435711810428
1714155363852223500,2.735223388671875,-0.12127064168453217,0.10393106937408447,-0.027166545391082764,-0.107279933989048,-0.5518359541893005,-0.8270236849784851,0.016444355249404907,-0.04888731241226196,0.024838626384735107,0.9301012082161687,0.2938498191592254,0.011851194490803782,0.2200538227919393
1714155363862213600,2.745213623046875,-0.16296769678592682,0.0997946485877037,-0.03202255442738533,-0.10617408901453018,-0.5509805083274841,-0.8277364373207092,0.009219743311405182,-0.05212312936782837,0.01969200372695923,0.9302936009346565,0.293224563344605,0.012294075898455908,0.22005027503157057
1714155363872202500,2.755202392578125,-0.1719910204410553,0.07123437523841858,-0.034154415130615234,-0.10519886016845703,-0.5498698353767395,-0.8285990357398987,0.005619987845420837,-0.0521504282951355,0.007477879524230957,0.9305351038611257,0.2924740890418717,0.012624517160883433,0.22000918848416862
1714155363882192600,2.765192626953125,-0.17246244847774506,0.06234102323651314,-0.041879575699567795,-0.10440905392169952,-0.548788845539093,-0.8294152021408081,0.012474842369556427,-0.03937643766403198,-0.0016089081764221191,0.9307752550146212,0.2917657588931536,0.012850377243485409,0.21992073350254804
1714155363892181500,2.775181396484375,-0.17848944664001465,0.07254225760698318,-0.03972374647855759,-0.1035417765378952,-0.5477717518806458,-0.8301959037780762,0.015483289957046509,-0.027774512767791748,-0.007008075714111328,0.9310123853420225,0.29108420575999355,0.013115588607119977,0.21980465195630572
1714155363902171600,2.785171630859375,-0.17371349036693573,0.07318194955587387,-0.035452306270599365,-0.1026071310043335,-0.5467253923416138,-0.8310012817382812,0.009299620985984802,-0.02076423168182373,-0.01122283935546875,0.9312517453914758,0.2903779420233522,0.013416735546875731,0.21970650404227843
1714155363912160500,2.795160400390625,-0.17211799323558807,0.07124476134777069,-0.03896155208349228,-0.1017049178481102,-0.5457525253295898,-0.8317513465881348,0.003072097897529602,-0.012215614318847656,-0.005925655364990234,0.9314748550764156,0.2897175903338173,0.013713262155830117,0.2196139285250006
1714155363922150700,2.805150634765625,-0.16242936253547668,0.06547289341688156,-0.02546684816479683,-0.10089945048093796,-0.5450159907341003,-0.832332193851471,0.003578878939151764,-0.009000122547149658,-0.008961141109466553,0.9316525280076094,0.28920255154028945,0.013992775977339111,0.21952133208324684
1714155363932139500,2.815139404296875,-0.12689001858234406,0.07211694866418839,0.005697994492948055,-0.10025626420974731,-0.5444844365119934,-0.8327576518058777,0.0039580389857292175,-0.012827575206756592,-0.011770486831665039,0.9317621083223377,0.28882178796554514,0.014252590745474317,0.21954076472825151
1714155363942129700,2.825129638671875,-0.09102075546979904,0.07648373395204544,0.023181913420557976,-0.09973548352718353,-0.5442978143692017,-0.8329422473907471,0.005542971193790436,-0.009062230587005615,-0.00717616081237793,0.9317775461230628,0.28864786206116155,0.014535749104025837,0.2196857633782326
1714155363952118300,2.8351181640625,-0.06140720099210739,0.07944570481777191,0.022283097729086876,-0.09924890100955963,-0.5443138480186462,-0.8329898118972778,0.0063228607177734375,0.00033801794052124023,-0.011309444904327393,0.9317446383906145,0.28859095581344607,0.014843875717552836,0.2198792114028655
1714155363962108700,2.845108642578125,-0.04769660905003548,0.08862428367137909,0.01647980324923992,-0.09858542680740356,-0.5443193316459656,-0.8330650925636292,0.0023940056562423706,0.012108027935028076,-0.01503366231918335,0.9317246191091819,0.2885054930762379,0.015232853829791573,0.2200496721834491
1714155363972097300,2.85509716796875,-0.05338139086961746,0.08985014259815216,0.006393612362444401,-0.09780927002429962,-0.5441211462020874,-0.8332859873771667,-0.0018001124262809753,0.017479300498962402,-0.008297264575958252,0.9317462166682149,0.2882917691095213,0.015647863966494972,0.2202091123419713
1714155363982087700,2.865087646484375,-0.055999547243118286,0.08689083904027939,0.0020262275356799364,-0.0970403328537941,-0.543768048286438,-0.8336063027381897,-0.003606654703617096,0.008886456489562988,-0.004909873008728027,0.9318020846681401,0.2879929470507577,0.016028189618319713,0.22033617882668508
1714155363992076300,2.875076171875,-0.03758058696985245,0.07138191908597946,0.014987034723162651,-0.09644931554794312,-0.5434513688087463,-0.8338814377784729,-0.0038619786500930786,-0.0014705061912536621,-0.0064658522605896,0.9318409919979936,0.28773709221489246,0.016329776427280014,0.2204839588118403
1714155364002066700,2.885066650390625,-0.018804185092449188,0.0713648721575737,0.021169694140553474,-0.09597817063331604,-0.5432329773902893,-0.8340780138969421,-0.006957635283470154,-0.004374504089355469,-0.007276296615600586,0.9318487817193991,0.2875509066404507,0.01659695909902436,0.22067376070064054
1714155364012056600,2.895056640625,-0.014147648587822914,0.09191728383302689,0.017636744305491447,-0.09539053589105606,-0.5431628823280334,-0.834191083908081,-0.008201390504837036,0.005397379398345947,-0.0025703907012939453,0.9318297422870017,0.2874320547976625,0.016948817270968537,0.22088239505189572
1714155364022045700,2.905045654296875,-0.031169669702649117,0.08057355135679245,0.027049090713262558,-0.09475318342447281,-0.5430219173431396,-0.8343554735183716,-0.011921018362045288,0.011131048202514648,0.002232670783996582,0.9318181940543776,0.2872666885481712,0.017324083479007796,0.2211167927236058
1714155364032035600,2.91503564453125,-0.05321824550628662,0.06218309700489044,0.03085341490805149,-0.09426667541265488,-0.5425671935081482,-0.8347063064575195,-0.012087084352970123,0.006983697414398193,-0.0009106993675231934,0.9318553541670449,0.28694547422232636,0.017582066158102976,0.22135661465216228
1714155364042024700,2.925024658203125,-0.09182390570640564,0.055939581245183945,0.022397078573703766,-0.09391138702630997,-0.5417191386222839,-0.8352969884872437,-0.01105383038520813,0.0044266581535339355,-0.00038111209869384766,0.9319602411782696,0.28642218466689073,0.017715741099978574,0.22158220519749672
1714155364052014600,2.9350146484375,-0.11622591316699982,0.052521947771310806,0.03060973808169365,-0.09363827109336853,-0.5405749678611755,-0.8360685110092163,-0.01352420449256897,-0.003278791904449463,0.005776762962341309,0.9321134706157848,0.2857447334875695,0.017767517678599708,0.2218080416536854
1714155364062003700,2.945003662109375,-0.11313202232122421,0.04891176521778107,0.026185626164078712,-0.09346872568130493,-0.5395084023475647,-0.8367761373519897,-0.017310090363025665,-0.011745870113372803,0.013213515281677246,0.9322476011926369,0.285124199414093,0.017779787705365133,0.2220419345958297
1714155364071993600,2.95499365234375,-0.10247857868671417,0.05507884919643402,0.01817563734948635,-0.09322600811719894,-0.5386280417442322,-0.8373701572418213,-0.01622530072927475,-0.010612130165100098,0.02155900001525879,0.9323613337015418,0.2845990462887177,0.01784102934126914,0.22223295959284575
1714155364081982700,2.964982666015625,-0.08107006549835205,0.049383945763111115,0.014214450493454933,-0.0929858535528183,-0.5379109978675842,-0.8378576040267944,-0.016358643770217896,-0.0019602179527282715,0.019864439964294434,0.9324525714038076,0.28416586372274466,0.017915158216157988,0.22239814780064973
1714155364091972600,2.97497265625,-0.060036689043045044,0.044082656502723694,0.010922517627477646,-0.09280943870544434,-0.5373290777206421,-0.838250458240509,-0.014169938862323761,0.0018371343612670898,0.013223052024841309,0.9325201908764283,0.2838163612162294,0.017973253976438314,0.22255638290748841
1714155364101961700,2.984961669921875,-0.05337270721793175,0.04145012050867081,0.0025894863065332174,-0.092690609395504,-0.5368205308914185,-0.8385894298553467,-0.007559642195701599,0.004273533821105957,0.00820612907409668,0.9325822291309765,0.2835158806124239,0.01800086189219033,0.22267743692950395
1714155364111951600,2.99495166015625,-0.0658394992351532,0.04506269842386246,0.002909864531829953,-0.09251953661441803,-0.5363008975982666,-0.8389406800270081,-0.003076784312725067,0.0036470890045166016,0.006482243537902832,0.9326559607417053,0.28320332550598976,0.018042446018594803,0.22276278973025113
1714155364121940700,3.004940673828125,-0.07750058174133301,0.03497544303536415,0.015491370111703873,-0.09241199493408203,-0.5357162952423096,-0.839326024055481,-0.005137458443641663,-0.0023086071014404297,0.005143284797668457,0.9327304851950449,0.28286225913297885,0.018053776326270143,0.22288340508812907
1714155364131930600,3.0149306640625,-0.0638928934931755,0.026029886677861214,0.021416369825601578,-0.09244906902313232,-0.5352386236190796,-0.8396265506744385,-0.003925450146198273,-0.00843203067779541,0.0055048465728759766,0.9327752180776386,0.2825989388570419,0.018015415942637295,0.22303292959026239
1714155364141920500,3.02492041015625,-0.04188718646764755,0.02310759946703911,0.019846970215439796,-0.09262573719024658,-0.5350566506385803,-0.8397231101989746,-0.003809817135334015,-0.007301747798919678,0.0038924217224121094,0.9327635802087628,0.2825177515327257,0.0179490411131335,0.22318980296921725
1714155364151909600,3.03490966796875,-0.016733631491661072,0.02679581195116043,0.009923232719302177,-0.09275173395872116,-0.5351207256317139,-0.839668333530426,-0.006399884819984436,0.003184080123901367,0.0001450181007385254,0.9327216327091808,0.28256748344048693,0.01792876483394297,0.223303878485908
1714155364161899500,3.0448994140625,0.010860444977879524,0.03340151533484459,0.010630834847688675,-0.09277203679084778,-0.5352995991706848,-0.839552104473114,-0.012147404253482819,0.01787412166595459,-0.0037553906440734863,0.9326629412519211,0.28266722627318863,0.017977725146646938,0.22341881134562488
1714155364171888600,3.054888671875,0.017559893429279327,0.028549503535032272,0.00229647196829319,-0.09275426715612411,-0.5355227589607239,-0.839411735534668,-0.01752101629972458,0.023804008960723877,-0.0005083084106445312,0.9326016807151436,0.28278692736926436,0.018047031669073496,0.22351749070239385
1714155364181878500,3.06487841796875,0.008664669468998909,0.02671804651618004,-0.014358937740325928,-0.09258948266506195,-0.535688042640686,-0.8393244743347168,-0.016480349004268646,0.023542046546936035,-0.002121448516845703,0.9325730305225073,0.2828568816976589,0.01815932777106686,0.22353934157182354
1714155364191867600,3.07486767578125,-0.011173483915627003,0.03160707652568817,-0.008649120107293129,-0.0923222079873085,-0.5357039570808411,-0.8393437266349792,-0.01603046804666519,0.016783058643341064,-0.0017359256744384766,0.9325801107444264,0.28283115177804624,0.018293974489945485,0.2235315975661439
1714155364201857500,3.084857421875,-0.057732462882995605,0.0333477184176445,-0.004399247467517853,-0.09208475053310394,-0.5354902148246765,-0.8395061492919922,-0.017229221761226654,0.004026651382446289,0.004682600498199463,0.9326181145548138,0.2826812137403525,0.01839148602874155,0.2235543277888565
1714155364211846700,3.0948466796875,-0.09322787821292877,0.025854384526610374,0.00255240174010396,-0.09188845008611679,-0.5349633693695068,-0.8398634791374207,-0.018112167716026306,-0.006433725357055664,0.00874781608581543,0.9327034557322504,0.28236238246329826,0.018431839041824993,0.22359800160727222
1714155364221836500,3.10483642578125,-0.12741923332214355,0.016655825078487396,0.0014817442279309034,-0.09176413714885712,-0.53411465883255,-0.8404170870780945,-0.01880105584859848,-0.015354335308074951,0.007882297039031982,0.9328405450609496,0.2818743619164316,0.018392999657091902,0.22364504313808514
1714155364231825700,3.11482568359375,-0.1437998116016388,0.010831758379936218,-0.003854165319353342,-0.09173376113176346,-0.5329588055610657,-0.8411539196968079,-0.01837366819381714,-0.018036067485809326,0.007230579853057861,0.9330280557032373,0.2812285585102718,0.0182633037981286,0.22368658171497685
1714155364241815600,3.124815673828125,-0.14765749871730804,0.004015130922198296,-0.012671291828155518,-0.09175980091094971,-0.5315672755241394,-0.8420311212539673,-0.017737284302711487,-0.011645615100860596,0.007695794105529785,0.9332607164814859,0.28046057720765183,0.01806375410431859,0.22369665047464812
1714155364251804700,3.1348046875,-0.12901563942432404,0.0020430602598935366,-0.020181406289339066,-0.09187045693397522,-0.5302525758743286,-0.8428475260734558,-0.016085483133792877,-0.007146775722503662,0.008283376693725586,0.9334853613670732,0.2797474159418728,0.017821538688755717,0.22367096930364466
1714155364261794600,3.144794677734375,-0.11225748807191849,0.0029080549720674753,-0.025905737653374672,-0.09191730618476868,-0.5290980339050293,-0.8435677289962769,-0.017930731177330017,-0.005417346954345703,0.0069741010665893555,0.933694707215637,0.27911582084316233,0.017620766612541527,0.22360276273682267
1714155364271783700,3.15478369140625,-0.08667197078466415,-0.008072956465184689,-0.024827422574162483,-0.0919904112815857,-0.528194785118103,-0.8441256284713745,-0.020131178200244904,-0.001224219799041748,0.005609393119812012,0.9338639659461374,0.2786272501014546,0.017436637762355156,0.22351961000648546
1714155364281773600,3.164773681640625,-0.05451078340411186,-0.00413973443210125,-0.02840258553624153,-0.09212417155504227,-0.5277016162872314,-0.8444194197654724,-0.026207752525806427,0.00522536039352417,0.0012187957763671875,0.9339651543503112,0.2783736207574505,0.0172743813202524,0.22342546152163817
1714155364291763500,3.174763427734375,-0.02068091556429863,0.010526826605200768,-0.03652309253811836,-0.09212268888950348,-0.5276228189468384,-0.8444687724113464,-0.029276251792907715,0.015110611915588379,0.0007798671722412109,0.9340096414050187,0.27833234188100475,0.017225395800843944,0.2232943184496521
1714155364301752600,3.184752685546875,0.008621525950729847,0.018077153712511063,-0.041111454367637634,-0.09198418259620667,-0.5278857946395874,-0.8443195223808289,-0.03521309792995453,0.022499442100524902,0.005635499954223633,0.9340065092489529,0.2784626712023603,0.017284852478821867,0.22314033795642949
1714155364311742500,3.194742431640625,0.018398256972432137,0.020076654851436615,-0.04298951476812363,-0.09178375452756882,-0.5283263325691223,-0.84406578540802,-0.03526093810796738,0.023199379444122314,0.01017296314239502,0.9339786376023174,0.2786835455972664,0.017395348553900042,0.22297247992329983
1714155364321731600,3.204731689453125,0.011462266556918621,0.010729226283729076,-0.04894687607884407,-0.09161170572042465,-0.5287087559700012,-0.8438449501991272,-0.028795406222343445,0.019126296043395996,0.015552163124084473,0.9339605249762486,0.2788761027263283,0.017482514749340587,0.22280084268191336
1714155364331721500,3.214721435546875,-0.009045405313372612,0.0077507467940449715,-0.0550130233168602,-0.0914432555437088,-0.5288966298103333,-0.8437455296516418,-0.019350826740264893,0.011928856372833252,0.020518600940704346,0.9339842000669732,0.2789622839285274,0.017529758698055405,0.22258974532227266
1714155364341710600,3.224710693359375,-0.023571990430355072,0.009600578807294369,-0.055168621242046356,-0.09125793725252151,-0.528899610042572,-0.8437637090682983,-0.013173229992389679,0.0016321539878845215,0.02505338191986084,0.9340448318611803,0.278944443425426,0.017553777033221404,0.22235604511180618
1714155364351700500,3.234700439453125,-0.0369863323867321,-0.0002222245093435049,-0.04268558695912361,-0.09116880595684052,-0.5287331342697144,-0.8438776731491089,-0.010286889970302582,-0.0073233842849731445,0.024495959281921387,0.9341216919834917,0.2788445287262083,0.017518116165722755,0.22216127382421788
1714155364361689600,3.244689697265625,-0.04903947934508324,-0.01424376666545868,-0.041834838688373566,-0.09128713607788086,-0.5283471345901489,-0.8441066145896912,-0.0028138309717178345,-0.012317538261413574,0.019765794277191162,0.934223397342934,0.2786493920113176,0.01735561829750131,0.22199076516623323
1714155364371679500,3.254679443359375,-0.053712792694568634,-0.023726219311356544,-0.040742408484220505,-0.09152722358703613,-0.5278065204620361,-0.8444187641143799,0.004338487982749939,-0.004664182662963867,0.017331361770629883,0.9343472897700633,0.2783843198323054,0.017111267512759966,0.2218209610064732
1714155364381668600,3.264668701171875,-0.04424344748258591,-0.036887027323246,-0.041328705847263336,-0.0919414609670639,-0.527258574962616,-0.8447160720825195,0.00676688551902771,0.003256499767303467,0.011036872863769531,0.9344682348309882,0.27813756525296746,0.016777002973186392,0.221646820496113
1714155364391658500,3.274658447265625,-0.028162747621536255,-0.03875869885087013,-0.0316140241920948,-0.0923994779586792,-0.5268619656562805,-0.8449134826660156,0.008720271289348602,0.010123074054718018,0.0051613450050354,0.9345639170798867,0.27798025960153305,0.016438975644239663,0.2214654127798237
1714155364401647600,3.284647705078125,-0.023885495960712433,-0.047970306128263474,-0.016405310481786728,-0.0928988829255104,-0.5266013145446777,-0.8450211882591248,0.009891070425510406,0.01418071985244751,0.007496833801269531,0.934625993886673,0.27790259881425533,0.01611055089379819,0.22132495881719297
1714155364411637500,3.294637451171875,-0.01743132621049881,-0.060501012951135635,-0.0007629673928022385,-0.09348129481077194,-0.5264442563056946,-0.8450548052787781,0.014059290289878845,0.00964432954788208,0.0063860416412353516,0.9346567952647865,0.2778919528153253,0.01576857181777732,0.2212329325488472
1714155364421627600,3.304627685546875,-0.0080060800537467,-0.06340678781270981,0.00664561428129673,-0.094130739569664,-0.5264570116996765,-0.8449748158454895,0.018233507871627808,0.007642865180969238,0.006916344165802002,0.934651577390348,0.2779833539281461,0.015422545802395021,0.22116459440458455
1714155364431616500,3.314616455078125,0.01584598980844021,-0.06460201740264893,0.010379898361861706,-0.09476805478334427,-0.5266360640525818,-0.8447920083999634,0.018596172332763672,0.009439408779144287,0.004231095314025879,0.9346157257711972,0.27816493955406757,0.0151087882003565,0.2211096003320735
1714155364441606400,3.3246064453125,0.03635893389582634,-0.07065138965845108,0.0064859576523303986,-0.09539396315813065,-0.5270162224769592,-0.8444844484329224,0.017757229506969452,0.014458179473876953,-0.0010813474655151367,0.9345490805478737,0.27845649345659046,0.014824385124602997,0.22104385188234746
1714155364451595500,3.334595458984375,0.039280153810977936,-0.07115712016820908,0.01040559820830822,-0.09599322825670242,-0.5274456739425659,-0.8441483378410339,0.017486751079559326,0.019511103630065918,-0.0067885518074035645,0.9344759430933789,0.27877210941712954,0.014558336943069378,0.2209727206320283
1714155364461585400,3.34458544921875,0.020329633727669716,-0.07308018952608109,0.012696448713541031,-0.09658033400774002,-0.5277338027954102,-0.8439012765884399,0.015815556049346924,0.020928382873535156,-0.012940764427185059,0.9344241424324421,0.2790078398053612,0.014282774414804335,0.2209125584834643
1714155364471573500,3.354573486328125,-0.0026949909515678883,-0.06395486742258072,0.018744220957159996,-0.09714710712432861,-0.5277311205863953,-0.8438378572463989,0.012003064155578613,0.011144816875457764,-0.016773104667663574,0.9344144229326895,0.2790795835841013,0.013987438822514783,0.22088186868373771
1714155364481563600,3.364563720703125,-0.02418728545308113,-0.04995302855968475,0.023877063766121864,-0.09760995954275131,-0.5275093913078308,-0.8439230918884277,0.006560757756233215,0.003339409828186035,-0.015253543853759766,0.93443472720248,0.2790161656381081,0.013727470589571272,0.22089187314907371
1714155364491552500,3.374552490234375,-0.039261844009160995,-0.044855739921331406,0.021495399996638298,-0.09796994179487228,-0.527152955532074,-0.8441040515899658,-0.0001746043562889099,-0.0009079575538635254,-0.01415705680847168,0.9344761526386274,0.27886470008844116,0.013507348431986407,0.2209217057745456
1714155364501542700,3.384542724609375,-0.031830184161663055,-0.03910863772034645,0.013276418671011925,-0.0982140600681305,-0.5267981290817261,-0.8442972302436829,-0.0033484548330307007,-0.0007135272026062012,-0.01677149534225464,0.9345270438581439,0.27869964998392566,0.013337978882403054,0.22092504213342662
1714155364511531500,3.394531494140625,-0.030854934826493263,-0.02538936212658882,0.016632534563541412,-0.09836530685424805,-0.5264665484428406,-0.8444863557815552,-0.00470782071352005,0.0043718814849853516,-0.01702481508255005,0.9345768404368279,0.2785355966933466,0.013218611908014613,0.22092853666588755
1714155364521521700,3.404521728515625,-0.023170065134763718,-0.010128384456038475,0.019625527784228325,-0.09843743592500687,-0.5261091589927673,-0.8447006940841675,-0.0055359601974487305,0.002870023250579834,-0.01528465747833252,0.9346232621203632,0.27834648656519234,0.013148439630659967,0.22097478933418516
1714155364531510500,3.414510498046875,-0.0166328027844429,-0.0014664533082395792,0.025530289858579636,-0.09843187034130096,-0.5257463455200195,-0.844927191734314,-0.006716452538967133,0.0036668777465820312,-0.012326836585998535,0.9346631699471751,0.27814393449002345,0.013128839003932864,0.22106172948399672
1714155364541500700,3.424500732421875,-0.019117746502161026,0.0013676825910806656,0.026757141575217247,-0.09839905798435211,-0.5253729224205017,-0.8451632261276245,-0.006703488528728485,0.0029425621032714844,-0.008840620517730713,0.9346991491831902,0.27793162581412767,0.013129835075572742,0.2211766106953651
1714155364551490600,3.434490478515625,-0.0184844471514225,0.0014960470143705606,0.02696060575544834,-0.09840711951255798,-0.5250555276870728,-0.8453595042228699,-0.0053831711411476135,-0.001357436180114746,-0.008522272109985352,0.9347214229553455,0.27775541740132775,0.013121431826492738,0.22130420718276883
1714155364561479700,3.444479736328125,-0.01944345235824585,-0.006769339554011822,0.025408849120140076,-0.09848114848136902,-0.524808943271637,-0.8455040454864502,-0.0016775578260421753,-0.002153337001800537,-0.005860090255737305,0.9347293772610638,0.2776268151549022,0.01308980934824544,0.2214339590133207
1714155364571469600,3.454469482421875,-0.0158282108604908,-0.008221028372645378,0.022212790325284004,-0.0986405685544014,-0.5245960354804993,-0.8456175327301025,0.0025407150387763977,-0.004319310188293457,-0.0060669779777526855,0.93473653168604,0.27752832540505035,0.013010165156715638,0.22153183907919682
1714155364581458700,3.464458740234375,-0.009018667042255402,0.005256962962448597,0.022960005328059196,-0.09879087656736374,-0.524405837059021,-0.8457179665565491,0.003576025366783142,-0.003792405128479004,-0.005447804927825928,0.9347389016509178,0.27744114351191673,0.012939742562178738,0.2216351899701911
1714155364591448600,3.474448486328125,0.0037890071980655193,0.008781390264630318,0.01931839995086193,-0.09883805364370346,-0.5242897272109985,-0.8457844257354736,0.0007698014378547668,-0.002992987632751465,-0.0008647441864013672,0.9347303684170323,0.27738151585347626,0.012933446034806076,0.22174624760391448
1714155364601437700,3.484437744140625,0.015848226845264435,0.006328086368739605,0.024366222321987152,-0.0989290252327919,-0.5242704749107361,-0.8457857370376587,-0.0010160505771636963,-0.000433504581451416,-0.0001004934310913086,0.9347011011830525,0.2773808946878417,0.01292201469160039,0.2218708464607252
1714155364611427600,3.494427490234375,0.010429225862026215,0.002990879351273179,0.024851182475686073,-0.09905195981264114,-0.5242805480957031,-0.8457651138305664,0.0002207830548286438,0.001758575439453125,0.0009470582008361816,0.9346663482809126,0.2774005976300814,0.012897968626241686,0.22199403790686612
1714155364621416400,3.50441650390625,0.0023429638240486383,0.0035576000809669495,0.023932790383696556,-0.09918367117643356,-0.5242581367492676,-0.8457635641098022,0.004273995757102966,0.002483844757080078,0.004027724266052246,0.9346350377895862,0.27740340406514646,0.012867256850333235,0.22212425633750765
1714155364631406600,3.514406494140625,-0.00114364642649889,-0.0015716482885181904,0.026438027620315552,-0.09933202713727951,-0.5242132544517517,-0.8457739949226379,0.004315540194511414,-0.002825319766998291,0.0064185261726379395,0.9346075753045299,0.2773960024895587,0.012824342037673554,0.2222517290060186
1714155364641395500,3.5243955078125,-0.005237830337136984,-0.0047655776143074036,0.020147839561104774,-0.09948524832725525,-0.5241479873657227,-0.8457964062690735,0.004224613308906555,-0.004843652248382568,0.008378803730010986,0.9345859507478612,0.2773781709489199,0.012772833973821458,0.22236766462179872
1714155364651385600,3.534385498046875,-0.005436236504465342,-0.004434812813997269,0.019172856584191322,-0.09960106760263443,-0.5240892171859741,-0.8458192348480225,0.003501206636428833,-0.001026749610900879,0.007074117660522461,0.9345723676821585,0.2773595256951311,0.012731233493663785,0.22245060609119083
1714155364661375500,3.54437548828125,-0.007046756334602833,-0.0013207783922553062,0.019914481788873672,-0.0996759906411171,-0.5240377187728882,-0.8458423018455505,-0.001505047082901001,0.0034993886947631836,0.008195817470550537,0.934560167024744,0.277339713675889,0.01270945920505779,0.22252763380903356
1714155364671364600,3.554364501953125,-0.013342468999326229,0.0015037701232358813,0.023360345512628555,-0.09975985437631607,-0.5239427089691162,-0.8458912968635559,-0.005235880613327026,0.002946615219116211,0.007313966751098633,0.934551254396311,0.2772968345345265,0.012681872914540704,0.22261987662715732
1714155364681354500,3.5643544921875,-0.009897563606500626,-0.011467954143881798,0.034175973385572433,-0.0999578982591629,-0.5238023400306702,-0.8459548354148865,-0.006380617618560791,0.004133701324462891,0.004661500453948975,0.9345387341478455,0.27724326186693227,0.012600097073534045,0.22274383150412908
1714155364691343600,3.574343505859375,-0.002105154562741518,-0.010683653876185417,0.03426279127597809,-0.10022590309381485,-0.5237118601799011,-0.8459791541099548,-0.003427058458328247,0.003371894359588623,0.008332669734954834,0.9345092420641571,0.2772259698335439,0.012497835109914937,0.22289504655574083
1714155364701333500,3.58433349609375,0.006627670954912901,-0.0038987186271697283,0.028147775679826736,-0.10040101408958435,-0.5236906409263611,-0.8459714651107788,-0.005449220538139343,0.006234586238861084,0.009087920188903809,0.9344747905293702,0.2772351706702533,0.012446948670910292,0.22303038109549628
1714155364711322600,3.594322509765625,0.009524391032755375,-0.0016078671906143427,0.021347926929593086,-0.10051485151052475,-0.5237877368927002,-0.8458978533744812,-0.009302660822868347,0.008376359939575195,0.007641017436981201,0.9344299964908047,0.27730213405146054,0.01243380523594012,0.2231354917353863
1714155364721312500,3.6043125,0.0027171378023922443,-0.002115465933457017,0.018289687111973763,-0.10058284550905228,-0.5239022970199585,-0.845818817615509,-0.010897882282733917,0.009055495262145996,0.007714569568634033,0.9343882833860296,0.2773730959802404,0.01244047784866778,0.22322157031827342
1714155364731301600,3.614301513671875,-0.01898655854165554,-0.005418051965534687,0.018768522888422012,-0.10066908597946167,-0.5238612294197083,-0.8458340167999268,-0.010704822838306427,0.006481468677520752,0.007561922073364258,0.9343742249451625,0.27736059086576753,0.012414063117117874,0.22329748712251535
1714155364741291500,3.62429150390625,-0.02921757474541664,-0.009219448082149029,0.024667691439390182,-0.1008535698056221,-0.5236531496047974,-0.845940887928009,-0.007529616355895996,-0.001966416835784912,0.008126556873321533,0.9343806271657804,0.2772683852919905,0.012320813871481463,0.2233904688055091
1714155364751280600,3.63428076171875,-0.029300663620233536,-0.006966146640479565,0.020238054916262627,-0.10106789320707321,-0.5234032869338989,-0.8460699319839478,-0.006384506821632385,-0.007617831230163574,0.007233262062072754,0.9343911119207186,0.2771569461447702,0.012209187911740374,0.22349107120774717
1714155364761270500,3.6442705078125,-0.027029570192098618,-0.008130215108394623,0.02251359261572361,-0.1012704074382782,-0.5231294631958008,-0.846215009689331,-0.006716057658195496,-0.005023002624511719,0.0035636425018310547,0.934405799068887,0.2770308132108606,0.012100290367655274,0.22359168018781764
1714155364771259600,3.654259765625,-0.027239162474870682,-0.0014235766138881445,0.02161078155040741,-0.1014416292309761,-0.522889256477356,-0.8463429808616638,-0.009199865162372589,0.001145482063293457,0.0011128783226013184,0.9344190988815756,0.27691935133732654,0.012007816649417864,0.22367937537514346
1714155364781249500,3.66424951171875,-0.018503941595554352,0.008398693986237049,0.02304675802588463,-0.10155922174453735,-0.5226713418960571,-0.8464635014533997,-0.011264272034168243,0.003689408302307129,0.002026855945587158,0.9344241255933421,0.2768128833651875,0.011953084760884733,0.22379327724378806
1714155364791239700,3.67423974609375,-0.012365620583295822,0.007485229521989822,0.026589827612042427,-0.10167012363672256,-0.5224793553352356,-0.8465687036514282,-0.010146290063858032,0.0029023289680480957,0.005977272987365723,0.9344179259147729,0.27671955466996234,0.011913941103364717,0.22393669884749892
1714155364801228500,3.684228515625,-0.011112604290246964,-0.002594568533822894,0.02751048095524311,-0.10185971856117249,-0.52232825756073,-0.8466391563415527,-0.0076373666524887085,0.0024613142013549805,0.005147457122802734,0.9344021656218505,0.27665901499052803,0.011840956740912165,0.22408116054859004
1714155364811218700,3.69421875,-0.011193564161658287,-0.002300289226695895,0.029515044763684273,-0.10210508108139038,-0.5222071409225464,-0.8466842770576477,-0.0018835663795471191,0.003942370414733887,0.0034226179122924805,0.934381267742429,0.27662247714121685,0.011741675764958576,0.22421801604713212
1714155364821207600,3.70420751953125,-0.019594717770814896,0.002684083068743348,0.03448743373155594,-0.10229555517435074,-0.522108256816864,-0.8467222452163696,0.0004736483097076416,0.004072368144989014,0.004421830177307129,0.9343569696882674,0.27659098831711415,0.011675000884770768,0.22436160101714886
1714155364831197700,3.71419775390625,-0.01751558855175972,-0.002845970680937171,0.03424561768770218,-0.10251674056053162,-0.5220064520835876,-0.8467583060264587,-0.0014414042234420776,-0.0023618340492248535,0.00436633825302124,0.9343270452941355,0.27656160908352,0.011598763946937485,0.22452649971138003
1714155364841186600,3.7241865234375,-0.0013545160181820393,-0.007260958664119244,0.032376211136579514,-0.10279339551925659,-0.521962583065033,-0.8467518091201782,-0.00046284496784210205,-0.0033365488052368164,0.0026661157608032227,0.9342873996423504,0.27657158603740384,0.011500303326095286,0.22468427176896155
1714155364851176700,3.7341767578125,0.002372045535594225,-0.0027500970754772425,0.029054982587695122,-0.10306057333946228,-0.5219504237174988,-0.8467268347740173,0.0009029656648635864,0.0034720301628112793,-0.001188814640045166,0.9342450836222558,0.2765979977303655,0.011408052707955467,0.22483243967848474
1714155364861165600,3.74416552734375,-0.005170878954231739,-0.0072407191619277,0.025480421259999275,-0.1033225953578949,-0.5219048261642456,-0.8467229604721069,0.0014091283082962036,0.0071648359298706055,-0.001696169376373291,0.9342116196036112,0.2766054792847664,0.01130989749288839,0.22496710736737785
1714155364871155700,3.75415576171875,-0.020198829472064972,-0.004279017448425293,0.022118978202342987,-0.10357298702001572,-0.5217790603637695,-0.8467699289321899,0.0012627914547920227,0.0032701492309570312,-0.0023664236068725586,0.9341957261405954,0.2765674710001312,0.011201930399232007,0.22508535461863546
1714155364881144600,3.76414453125,-0.028047112748026848,-0.0018283769022673368,0.027375327423214912,-0.10379200428724289,-0.5215516686439514,-0.8468831777572632,0.0016038790345191956,-0.002938687801361084,-0.0029398202896118164,0.9341977228593489,0.27646935176499093,0.011095814487175372,0.22520284787528744
1714155364891134700,3.774134765625,-0.023405224084854126,0.004786915145814419,0.029117301106452942,-0.10394454002380371,-0.5212870836257935,-0.8470273613929749,-0.001432664692401886,-0.009764611721038818,-0.0028261542320251465,0.9342032593562247,0.27634181383602835,0.011023872994297641,0.22533980276626409
1714155364901124600,3.78412451171875,1.1132709980010986,-0.030467212200164795,0.29183414578437805,-0.10579489916563034,-0.5254852175712585,-0.8441994786262512,-0.0028782039880752563,-0.006466686725616455,-0.00823277235031128,0.9333577209708595,0.2788983386958389,0.010769247298195395,0.22570593654942592
1714155364911113700,3.79411376953125,0.050452593713998795,-0.0232071690261364,0.15576286613941193,-0.10645407438278198,-0.530238926410675,-0.8411386013031006,-0.0048587992787361145,0.008220553398132324,-0.008348643779754639,0.9322277546808538,0.2816010704997107,0.011468493499689592,0.22698167980817235
1714155364921103600,3.804103515625,0.20392033457756042,-0.03126616030931473,0.07525230199098587,-0.10721897333860397,-0.5304571986198425,-0.8409038782119751,-0.04651334136724472,0.045670151710510254,0.021644234657287598,0.9320606714093438,0.28181852224361625,0.011242432484288245,0.2274091683867787
1714155364931092700,3.8140927734375,0.2361653596162796,-0.1376168429851532,0.0064063952304422855,-0.10820658504962921,-0.5325765013694763,-0.8394364714622498,-0.053353480994701385,-0.028244972229003906,0.05901050567626953,0.9316463112498773,0.2831243389121553,0.01106191049185578,0.22749396759741025
1714155364941082600,3.82408251953125,0.11890383064746857,-0.06588965654373169,-0.0688011422753334,-0.10891560465097427,-0.5338205695152283,-0.8385540843009949,0.07539203763008118,-0.02619224786758423,0.03409552574157715,0.9314928701900898,0.28391357749278245,0.010771743644432022,0.22715223690280825
1714155364951071700,3.83407177734375,0.1437830775976181,0.03851345181465149,-0.04808574169874191,-0.10870827734470367,-0.5349628329277039,-0.8378527760505676,0.03958594799041748,0.04149359464645386,0.00023686885833740234,0.9313756253419067,0.28452385704512734,0.010944306729611969,0.2268611089547013
1714155364961061600,3.8440615234375,0.050667621195316315,0.032909095287323,-0.024038929492235184,-0.1081249862909317,-0.5358099937438965,-0.8373868465423584,-0.04606509208679199,0.025998592376708984,0.0299832820892334,0.9312769319421922,0.2849182425279945,0.011321573959986356,0.22675281386194993
1714155364971050800,3.85405078125,-0.05503244698047638,0.024597903713583946,-0.012420356273651123,-0.10785192251205444,-0.5357580184936523,-0.8374552130699158,-0.05503566563129425,0.010870933532714844,-0.002296924591064453,0.9313047063363036,0.28485348618819784,0.011440117762465486,0.22671372513348953
1714155364981040600,3.86404052734375,-0.19357344508171082,0.11870042979717255,-0.03526302054524422,-0.10720767080783844,-0.5347582697868347,-0.8381766676902771,-0.010086655616760254,0.002882659435272217,0.0031089186668395996,0.9314986490924541,0.28421204036669545,0.011627096640825896,0.22671262935192482
1714155364991029800,3.87402978515625,-0.4110839366912842,0.2883267402648926,-0.0874045193195343,-0.10518499463796616,-0.5322481393814087,-0.8400286436080933,-0.010690256953239441,-0.013818204402923584,0.0018786191940307617,0.9319810095707258,0.28254895138950586,0.012319837722891629,0.22677256836105775
1714155365001019600,3.88401953125,-0.41621342301368713,0.02727304957807064,-0.16200850903987885,-0.10284551978111267,-0.528591513633728,-0.8426231741905212,-0.04131953418254852,-0.009814858436584473,-0.011350154876708984,0.9327230746000363,0.2802159383526795,0.012939673677586125,0.22658201267325687
1714155365011009800,3.894009765625,-0.2506020963191986,-0.2132950872182846,-0.09539300203323364,-0.10313838720321655,-0.5261462330818176,-0.8441165089607239,-0.04574163258075714,-0.03235596418380737,-0.015350103378295898,0.933312130681912,0.2789127158247164,0.012225271739025483,0.22580249470308242
1714155365020998700,3.90399853515625,-0.1044120341539383,-0.2267746776342392,-0.011007549241185188,-0.1048528179526329,-0.5248291492462158,-0.8447249531745911,0.005701199173927307,-0.07220149040222168,0.008436501026153564,0.9336159084448912,0.27841753385627954,0.011009452818087379,0.2252193216210272
1714155365030988800,3.91398876953125,-0.021434057503938675,0.014583619311451912,-0.05511295795440674,-0.1054675355553627,-0.5243529677391052,-0.8449441194534302,0.0865008533000946,0.016982972621917725,0.007587552070617676,0.9337482202092927,0.2782386708834647,0.010544594472701015,0.22491397023949974
1714155365040977700,3.923977783203125,-0.05451488494873047,0.13018131256103516,-0.015631062909960747,-0.10460858047008514,-0.5241143703460693,-0.845198929309845,-0.02269551157951355,0.07930535078048706,0.005858719348907471,0.9338313533265573,0.2779948874749932,0.010926443353983614,0.22485213521459912
1714155365050967800,3.9339677734375,-0.08354493975639343,0.0777849555015564,0.04721474647521973,-0.10373332351446152,-0.5234960317611694,-0.8456898331642151,-0.10903523117303848,0.012250304222106934,0.011461377143859863,0.9339030119766891,0.27753573989662395,0.01135739358431239,0.2251002605807068
1714155365060956700,3.943956787109375,-0.08632693439722061,-0.017428642138838768,0.017509913071990013,-0.10366784036159515,-0.5227147340774536,-0.8461809754371643,-0.06262245774269104,-0.02004033327102661,0.010060429573059082,0.9339808867486741,0.27709322794966046,0.011350845201362252,0.2253226885692839
1714155365070946800,3.95394677734375,-0.0781792551279068,-0.04757669195532799,-0.04438354820013046,-0.10391709208488464,-0.5220617651939392,-0.8465535044670105,0.01590438187122345,-0.024859070777893066,0.000652015209197998,0.9341101198218253,0.27676710371778795,0.011100879590586914,0.22520013682049292
1714155365080935700,3.963935791015625,-0.08380752056837082,-0.016128486022353172,-0.07199926674365997,-0.1039050742983818,-0.5214261412620544,-0.8469465970993042,0.03311953693628311,-0.021740972995758057,-0.0024186372756958008,0.9342941369266081,0.2764188355880719,0.010924312778757939,0.2248727325720357
1714155365090925600,3.973925537109375,-0.07596105337142944,0.01866358332335949,-0.0443095788359642,-0.10359121114015579,-0.5208279490470886,-0.8473529815673828,0.0037071779370307922,-0.011490166187286377,-0.0005626082420349121,0.9344666775946425,0.2760510498037488,0.010923341343347374,0.22460738879595943
1714155365100914700,3.983914794921875,-0.06204087287187576,0.019965069368481636,-0.029220839962363243,-0.10321253538131714,-0.5203799605369568,-0.8476744294166565,-0.025205448269844055,-0.008810102939605713,0.005755484104156494,0.9345873630571641,0.2757563179318527,0.011011191444228546,0.2244633558349985
1714155365110904600,3.993904541015625,-0.052124056965112686,-0.0012241057120263577,-0.04166419431567192,-0.10283362120389938,-0.5199373960494995,-0.847991943359375,-0.02653040736913681,-0.009573101997375488,0.0146026611328125,0.9347091020391617,0.2754648547557413,0.01109716400295497,0.22430966685605672
1714155365120894700,4.003894775390625,-0.05623054504394531,-0.019107498228549957,-0.06550800800323486,-0.10268621891736984,-0.5194067358970642,-0.8483349680900574,-0.0057274773716926575,-0.006578981876373291,0.02365851402282715,0.9348629704169987,0.2751562976439208,0.011023956018266022,0.2240508316674254
1714155365130883600,4.013883544921875,-0.047649040818214417,-0.036132022738456726,-0.06147971376776695,-0.102780781686306,-0.5190274119377136,-0.8485556244850159,0.011701062321662903,-0.006729423999786377,0.024291157722473145,0.9349977484798716,0.2749633377547087,0.010832470169377273,0.22373428731954387
1714155365140873700,4.023873779296875,-0.031167270615696907,-0.03723909705877304,-0.048342738300561905,-0.10292807966470718,-0.5187965631484985,-0.8486789464950562,0.01572408527135849,-0.007875800132751465,0.020187735557556152,0.9351001348890629,0.27485862148678575,0.010642268282518262,0.2234444208334255
1714155365150862600,4.033862548828125,-0.009161040186882019,-0.02899794653058052,-0.039739128202199936,-0.10297501087188721,-0.5187125205993652,-0.8487246036529541,0.01145278662443161,0.0018668174743652344,0.015045404434204102,0.9351706190158509,0.27482120497723056,0.010535631247852256,0.22320009665312793
1714155365160852700,4.043852783203125,0.005344453267753124,-0.0280301533639431,-0.04173203930258751,-0.10294689983129501,-0.5188004374504089,-0.8486743569374084,0.005244873464107513,0.011308372020721436,0.014476358890533447,0.9352166394552142,0.2748687543043328,0.010488276270027644,0.22295098988791678
1714155365170841600,4.053841552734375,0.009636936709284782,-0.04452790319919586,-0.038988448679447174,-0.10305071622133255,-0.5189307928085327,-0.8485819697380066,0.005028247833251953,0.014475226402282715,0.008585691452026367,0.9352512642603383,0.2749568365323109,0.01038010207068793,0.22270172970391913
1714155365180831700,4.063831787109375,0.007905615493655205,-0.05018232762813568,-0.027232591062784195,-0.1033397689461708,-0.519074559211731,-0.8484588861465454,0.00887259840965271,0.016984105110168457,0.00357973575592041,0.9352705584988299,0.2750758691990016,0.010189232122707607,0.222482523676723
1714155365190820600,4.073820556640625,-0.003346240147948265,-0.04191827028989792,-0.012342858128249645,-0.10370096564292908,-0.5191423296928406,-0.8483733534812927,0.00992044061422348,0.016700923442840576,0.0024413466453552246,0.9352844318800055,0.27516160840422077,0.009970878757478888,0.22232785839406366
1714155365200810800,4.083810791015625,-0.005264461971819401,-0.028367042541503906,0.0006109571550041437,-0.10396332293748856,-0.5191637277603149,-0.848328173160553,0.004811704158782959,0.015257418155670166,0.0002599358558654785,0.9352906638840504,0.27520808821069354,0.009819043563046463,0.22225117587365456
1714155365210800600,4.093800537109375,-0.011597192846238613,-0.030462950468063354,0.009633480571210384,-0.10416944324970245,-0.5192443132400513,-0.8482534885406494,0.0008369088172912598,0.01842033863067627,-0.0011116862297058105,0.9352790430461269,0.2752795849900379,0.00971552635096766,0.2222157192555165
1714155365220789800,4.103789794921875,-0.01895923539996147,-0.03826095163822174,0.01700611039996147,-0.10441336780786514,-0.5192592144012451,-0.8482144474983215,0.002209991216659546,0.020769834518432617,-0.005224883556365967,0.9352695535081362,0.2753193430458418,0.00959357898186984,0.22221201443078115
1714155365230779600,4.113779541015625,-0.019575491547584534,-0.032517313957214355,0.024470152333378792,-0.10474496334791183,-0.5191342234611511,-0.8482500910758972,0.009530104696750641,0.025756478309631348,-0.005494415760040283,0.9352698816498775,0.27529293150503775,0.009421432233943101,0.22225075805016006
1714155365240768800,4.123768798828125,-0.03018440678715706,-0.029507674276828766,0.03692855313420296,-0.10513007640838623,-0.5188581347465515,-0.8483713269233704,0.014706484973430634,0.025434672832489014,-0.0031301379203796387,0.9352777734330155,0.27518959655873815,0.009221170051356385,0.22235359036948094
1714155365250758700,4.133758544921875,-0.043519385159015656,-0.03466222435235977,0.038604479283094406,-0.10556109249591827,-0.5184277296066284,-0.8485808968544006,0.01811295747756958,0.022150874137878418,-0.0029358267784118652,0.935300624939308,0.27500684844507334,0.008988141676461961,0.222493224495527
1714155365260747800,4.143747802734375,-0.04685339704155922,-0.030004356056451797,0.04831549525260925,-0.10601217299699783,-0.5179066061973572,-0.8488428592681885,0.01712971180677414,0.019554555416107178,-0.0035283565521240234,0.9353320714209171,0.27477662173533407,0.008739617891858557,0.22265551406773582
1714155365270737700,4.153737548828125,-0.033234257251024246,-0.02712547779083252,0.05292382836341858,-0.10645350068807602,-0.5174281597137451,-0.8490793704986572,0.015343256294727325,0.016070127487182617,-0.0056111812591552734,0.9353495493196462,0.2745685611701469,0.008510271252262051,0.22284717821759872
1714155365280726800,4.163726806640625,-0.022397324442863464,-0.02404659613966942,0.051564618945121765,-0.10691534727811813,-0.5170413255691528,-0.8492569327354431,0.013119563460350037,0.015912115573883057,-0.007203578948974609,0.9353444021661206,0.2744135087243866,0.008291274311025998,0.22306799532079405
1714155365290716700,4.173716552734375,-0.01087568886578083,-0.014962287619709969,0.046021249145269394,-0.10731763392686844,-0.5167418718338013,-0.8493884801864624,0.011614486575126648,0.023593008518218994,-0.009101510047912598,0.935330196744651,0.27429909812553455,0.008109776940926267,0.22327501733922883
1714155365300705800,4.183705810546875,-0.007489586248993874,-0.006111805327236652,0.04750256612896919,-0.10761258006095886,-0.5164632201194763,-0.8495206236839294,0.009925812482833862,0.02572530508041382,-0.007351934909820557,0.935316427791127,0.2741823137695297,0.007984567668840495,0.22348045554543286
1714155365310695700,4.19369580078125,-0.023386260494589806,-0.004888349212706089,0.04622025415301323,-0.10782251507043839,-0.516092836856842,-0.8497190475463867,0.006229482591152191,0.02018219232559204,-0.009442329406738281,0.935319807834333,0.27400402832835646,0.007890595971641726,0.22368827799926266
1714155365320685600,4.203685546875,-0.04640406742691994,0.0010044274386018515,0.055225733667612076,-0.10798417031764984,-0.5155711770057678,-0.8500152230262756,0.0049415528774261475,0.013083994388580322,-0.010000646114349365,0.935343890684337,0.2737360897099399,0.007807297856803064,0.22391856846733768
1714155365330674700,4.2136748046875,-0.05756431072950363,0.008262073621153831,0.06673884391784668,-0.10811344534158707,-0.5149194002151489,-0.8503937721252441,0.0033771097660064697,0.00437551736831665,-0.005898952484130859,0.9353773766526193,0.27339211744838837,0.00773808655581136,0.22420088831168805
1714155365340664600,4.22366455078125,-0.05823100730776787,0.0028670423198491335,0.06850292533636093,-0.10827893018722534,-0.5142262578010559,-0.8507919907569885,0.003771468997001648,-0.0022836923599243164,-0.006141602993011475,0.9354073652783038,0.27303001063118765,0.007655708891445595,0.22451990445821426
1714155365350653700,4.23365380859375,-0.047273166477680206,-0.0011101225391030312,0.058892104774713516,-0.10847020894289017,-0.5136146545410156,-0.8511369824409485,0.0040390342473983765,-0.0016899704933166504,-0.008695721626281738,0.9354295481408825,0.2727165149016191,0.007562955182414635,0.22481115783772135
1714155365360643600,4.2436435546875,-0.03929992765188217,0.013765762560069561,0.050011131912469864,-0.10859695076942444,-0.5130941271781921,-0.8514347672462463,0.0023957714438438416,0.006426036357879639,-0.010793626308441162,0.9354455433350063,0.27244498236515835,0.00750694457541759,0.2250759560732916
1714155365370632700,4.2536328125,-0.019298255443572998,0.020544307306408882,0.04937170445919037,-0.10858837515115738,-0.5126159191131592,-0.851723849773407,-0.0013054311275482178,0.010861098766326904,-0.009680569171905518,0.9354607628574784,0.27217915986552266,0.007522309726097021,0.22533324887961836
1714155365380622600,4.26362255859375,-0.015866238623857498,0.01210421696305275,0.050898026674985886,-0.10861383378505707,-0.5122343301773071,-0.8519501090049744,-0.006223827600479126,0.0076718926429748535,-0.00991201400756836,0.9354570744516386,0.2719708458800808,0.007535956629685703,0.22559947578739803
1714155365390611700,4.27361181640625,0.0026243533939123154,0.01550826895982027,0.041932761669158936,-0.10870090872049332,-0.5119777917861938,-0.8520932197570801,-0.00592312216758728,0.0033718347549438477,-0.014789104461669922,0.935438186036333,0.2718395390362752,0.007526711949277787,0.2258362789739087
1714155365400601600,4.2836015625,0.013918234035372734,0.033184733241796494,0.027227187529206276,-0.10862579196691513,-0.5119083523750305,-0.8521445393562317,-0.006837472319602966,0.010611355304718018,-0.01193016767501831,0.9354060733696321,0.27179002976577116,0.007610344519927523,0.2260261688860703
1714155365410591500,4.293591552734375,0.013437800109386444,0.03359565883874893,0.02538374811410904,-0.10842692852020264,-0.5119779109954834,-0.8521280884742737,-0.01115620881319046,0.012176275253295898,-0.007277429103851318,0.9353617596425845,0.27180071161583896,0.007767553217107655,0.2261912329490667
1714155365420580600,4.30358056640625,-0.00788075104355812,0.020261745899915695,0.03046579286456108,-0.10831274837255478,-0.5119874477386475,-0.8521368503570557,-0.014047496020793915,0.001870870590209961,-0.005971670150756836,0.935323895463764,0.27178955800502885,0.007874546227635344,0.22635757204054532
1714155365430570500,4.313570556640625,-0.03581384941935539,0.019282234832644463,0.034286629408597946,-0.10827973484992981,-0.5117661356925964,-0.8522739410400391,-0.00909087061882019,-0.006437540054321289,-0.004018723964691162,0.9353184867254659,0.27166234981112797,0.007911788563271252,0.2265308786991398
1714155365440559600,4.3235595703125,-0.05469571426510811,0.024004552513360977,0.03364793583750725,-0.10822654515504837,-0.5112766027450562,-0.8525745272636414,-0.008167505264282227,-0.007766366004943848,0.004338443279266357,0.93535482976047,0.2713852095727069,0.007925595886945136,0.2267128666295824
1714155365450549500,4.333549560546875,-0.060756534337997437,0.02769995480775833,0.024239787831902504,-0.10816362500190735,-0.5106271505355835,-0.852971613407135,-0.011297449469566345,-0.011467576026916504,0.01100689172744751,0.9354151901766705,0.2710191782576531,0.007924651976819685,0.22690148100916416
1714155365460538600,4.34353857421875,-0.04726959764957428,0.008798700757324696,0.031169600784778595,-0.10820838063955307,-0.5100575089454651,-0.8533067107200623,-0.014670655131340027,-0.011960983276367188,0.013630807399749756,0.9354610069903929,0.2707112581161048,0.00787784944428157,0.22708184654056995
1714155365470528800,4.35352880859375,-0.026516379788517952,0.00047765416093170643,0.032542191445827484,-0.10839366912841797,-0.5096282958984375,-0.8535395860671997,-0.012501724064350128,-0.0100555419921875,0.008355259895324707,0.935481178170752,0.27049900111493935,0.007777251673807606,0.22725521225921555
1714155365480518000,4.363517822265625,-0.002525774296373129,0.007915063761174679,0.026972057297825813,-0.10856189578771591,-0.5093809962272644,-0.853665828704834,-0.008320435881614685,0.004437148571014404,0.008832454681396484,0.9354768290510119,0.27038439714987134,0.0077048171609391605,0.22741188590759942
1714155365490507800,4.3735078125,0.0014364770613610744,0.01343446597456932,0.027965949848294258,-0.10865535587072372,-0.5092588663101196,-0.8537268042564392,-0.010531052947044373,0.016415178775787354,0.014050960540771484,0.9354574381134342,0.2703285836779624,0.007683894852395887,0.22755875333102868
1714155365500498000,4.383497802734375,-0.015707995742559433,-0.0030443763826042414,0.039539847522974014,-0.10885640978813171,-0.509147047996521,-0.8537678718566895,-0.013519085943698883,0.014167189598083496,0.014244616031646729,0.935427991964532,0.2702925324873284,0.007615827427431325,0.22772460881843312
1714155365510486800,4.39348681640625,-0.01616046577692032,-0.03228987753391266,0.04695967957377434,-0.10928752273321152,-0.5090103149414062,-0.8537943363189697,-0.006511427462100983,0.00223541259765625,0.013752281665802002,0.9353894600782185,0.27027310781085045,0.007435041509490148,0.22791176754233
1714155365520477000,4.403476806640625,0.003883389290422201,-0.03169040009379387,0.03668200969696045,-0.10984829813241959,-0.5090036392211914,-0.853726327419281,0.0012972652912139893,-0.0038900375366210938,0.011914193630218506,0.9353349363229733,0.2703424787334996,0.007195654216938879,0.22806070975321757
1714155365530465800,4.4134658203125,0.03639872372150421,-0.017484568059444427,0.03585989028215408,-0.11028929799795151,-0.5092697143554688,-0.8535107374191284,0.0034777671098709106,0.00684356689453125,0.011866509914398193,0.9352425175729824,0.27054555160949634,0.0070513841019124585,0.22820335315590096
1714155365540456000,4.4234560546875,0.05079545080661774,-0.02255229651927948,0.0436871200799942,-0.11075589805841446,-0.5097378492355347,-0.8531708121299744,-0.0035324320197105408,0.018908381462097168,0.007299900054931641,0.935109749803787,0.27086262802367456,0.006930014527410308,0.22837507601202012
1714155365550444800,4.43344482421875,0.0369211807847023,-0.02495286986231804,0.047450434416532516,-0.11127080023288727,-0.5101695656776428,-0.8528457283973694,-0.007000088691711426,0.023307383060455322,0.0013900995254516602,0.9349791282784595,0.27116624717343946,0.006781759163001291,0.22855426660328082
1714155365560435000,4.44343505859375,0.008438779972493649,-0.02712947130203247,0.05232628062367439,-0.11177828162908554,-0.5102925896644592,-0.852705717086792,-0.003837577998638153,0.02265220880508423,0.00009036064147949219,0.9348936912746558,0.2712997737529547,0.0066004401149624276,0.22875009791472142
1714155365570423800,4.453423828125,-0.007223004475235939,-0.024271367117762566,0.060832682996988297,-0.11235843598842621,-0.5101534724235535,-0.8527127504348755,0.0007251426577568054,0.016043365001678467,-0.00026875734329223633,0.9348373753211668,0.27129908058637486,0.006359310997924875,0.22898765568805107
1714155365580413700,4.46341357421875,-0.005062541458755732,-0.014776932075619698,0.07269101589918137,-0.11295196413993835,-0.509972870349884,-0.8527423739433289,0.0014712363481521606,0.010766327381134033,-0.004114925861358643,0.9347736650574129,0.2712772377138396,0.0061217897130618065,0.22928008901173388
1714155365590403800,4.47340380859375,-0.010172881186008453,-0.01328369788825512,0.07682263851165771,-0.11347988247871399,-0.5098659992218018,-0.8527361750602722,-0.0017850100994110107,0.011437654495239258,-0.010148346424102783,0.9346916753662057,0.2712870297107751,0.005937401033339659,0.22960766828049897
1714155365600392700,4.483392822265625,-0.028281522914767265,-0.011823752894997597,0.07776959240436554,-0.11394214630126953,-0.5096964836120605,-0.8527758717536926,-0.0034284666180610657,0.017188549041748047,-0.012916207313537598,0.9346182111202709,0.27125381066401166,0.0057816557447809835,0.2299496299891144
1714155365610382800,4.4933828125,-0.03916293382644653,-0.004814312793314457,0.07750806957483292,-0.1143861785531044,-0.509320080280304,-0.8529413342475891,-0.0016111433506011963,0.015881359577178955,-0.013666331768035889,0.9345750363907374,0.27110488418671613,0.005610763288216122,0.2303048483114701
1714155365620371700,4.503371826171875,-0.048559099435806274,0.001669152406975627,0.0815713182091713,-0.11483152210712433,-0.5087571144104004,-0.8532174229621887,0.0003295689821243286,0.006407260894775391,-0.01168125867843628,0.9345539047510952,0.27085400798552123,0.005422363276449238,0.23068978607240204
1714155365630361900,4.51336181640625,-0.04071209579706192,0.0075960177928209305,0.08438041806221008,-0.11525082588195801,-0.5081411600112915,-0.8535279035568237,0.001054033637046814,0.0011067986488342285,-0.01002800464630127,0.9345355235343352,0.2705707157980363,0.005247156230943198,0.23110063940860842
1714155365640350700,4.523350830078125,-0.027783406898379326,0.005739527754485607,0.08245429396629333,-0.11562339961528778,-0.50762939453125,-0.8537819981575012,0.004783540964126587,-0.0003967881202697754,-0.00943821668624878,0.9345024762317883,0.2703385186916971,0.00510853485882215,0.23150839970956222
1714155365650340900,4.5333408203125,-0.009891225025057793,0.009836534969508648,0.07815994322299957,-0.11595877259969711,-0.5072981119155884,-0.8539333939552307,0.007117822766304016,0.0003858208656311035,-0.007913529872894287,0.9344463418140232,0.2702003394791929,0.005007902345908033,0.23189830564163474
1714155365660329700,4.543329833984375,0.004822419490665197,0.013253636658191681,0.072242870926857,-0.11621715128421783,-0.5071141719818115,-0.8540075421333313,0.0058350637555122375,0.000903785228729248,-0.008510768413543701,0.934373927002089,0.27013261729199584,0.004960644649841625,0.23226988745917465
1714155365670319900,4.55331982421875,0.015181850641965866,0.010199523530900478,0.06523236632347107,-0.116455078125,-0.5070213079452515,-0.8540302515029907,0.005462639033794403,-0.0016609430313110352,-0.008472800254821777,0.9342940094913494,0.2701121942970879,0.004928523790528272,0.2326152989828017
1714155365680309800,4.563309814453125,0.027338169515132904,0.0074559347704052925,0.06060445308685303,-0.11668241769075394,-0.5069863796234131,-0.8540199398994446,0.00686490535736084,-0.003038644790649414,-0.0070487260818481445,0.9342133380047994,0.27012221240311074,0.004900247652320611,0.23292822346648645
1714155365690299000,4.573298828125,0.027587175369262695,0.0068018632009625435,0.05308821424841881,-0.11690869927406311,-0.5070117712020874,-0.853973925113678,0.008372925221920013,-0.006004035472869873,-0.0047449469566345215,0.9341275814233955,0.27016528088636915,0.004875321954591963,0.23322213375701276
1714155365700288800,4.583288818359375,0.02065294235944748,0.007868724875152111,0.04610021039843559,-0.11706475913524628,-0.5070911049842834,-0.853905439376831,0.00778130441904068,-0.008198201656341553,-0.0016090869903564453,0.934048982029452,0.2702286017423846,0.004877864016684635,0.23346359939813283
1714155365710278000,4.59327783203125,0.005282508209347725,0.009013351984322071,0.041608523577451706,-0.11717498302459717,-0.50711989402771,-0.8538731932640076,0.005602702498435974,-0.008337199687957764,0.0033025145530700684,0.9339862351197158,0.27025820868942774,0.004889222636826729,0.23368007185581857
1714155365720267800,4.603267822265625,-0.005774031858891249,0.008842643350362778,0.03886287286877632,-0.11725546419620514,-0.5070545673370361,-0.8539009690284729,0.0017159059643745422,-0.010187864303588867,0.0051766037940979,0.9339464247391291,0.27023241421302374,0.004894541320282331,0.23386895330618035
1714155365730257000,4.6132568359375,-0.0049652294255793095,0.007313989102840424,0.03830467537045479,-0.11732663214206696,-0.506921112537384,-0.8539704084396362,-0.0007153823971748352,-0.012793242931365967,0.0055359601974487305,0.9339155918649868,0.270168141769883,0.00489747143126254,0.23406586544366043
1714155365740246800,4.623246826171875,0.005473403260111809,0.007768057286739349,0.038983915001153946,-0.11742562055587769,-0.5068356394767761,-0.8540075421333313,-0.0021880418062210083,-0.010696709156036377,0.003650486469268799,0.9338782773788398,0.2701338897948769,0.004890628970678199,0.2342544396925535
1714155365750236000,4.63323583984375,0.01505226083099842,0.007607735693454742,0.0374523289501667,-0.11751417815685272,-0.5068500638008118,-0.8539867997169495,-0.0011686980724334717,-0.005295932292938232,-0.002183854579925537,0.93382771082755,0.27015291894188875,0.004900100422316964,0.2344336680918667
1714155365760225800,4.643225830078125,0.025704320520162582,0.014735952019691467,0.039164941757917404,-0.11755436658859253,-0.5069625377655029,-0.8539144992828369,-0.005660362541675568,0.0019423961639404297,-0.005399465560913086,0.93376136316527,0.2702188803438958,0.004949709172053521,0.23462102876174068
1714155365770216000,4.6532158203125,0.024172203615307808,0.019160527735948563,0.036991801112890244,-0.11754386872053146,-0.5071576237678528,-0.8538001179695129,-0.009928055107593536,0.007447540760040283,-0.0043846964836120605,0.9336835041887519,0.27032309895416773,0.0050363844543092895,0.2348091044832874
1714155365780204800,4.663204833984375,0.009557254612445831,0.019883310422301292,0.03505934402346611,-0.11749628931283951,-0.507309079170227,-0.8537166714668274,-0.010738581418991089,0.006958127021789551,-0.0020114779472351074,0.933615675702793,0.2703984434668675,0.005133495999900192,0.2349897237093477
1714155365790195000,4.67319482421875,-0.010392751544713974,0.01980927400290966,0.03625430539250374,-0.11748403310775757,-0.507317066192627,-0.8537136316299438,-0.010949209332466125,0.0014576911926269531,0.0029445886611938477,0.9335693674386087,0.27040012932558627,0.005193113147659745,0.23517055066713374
1714155365800183800,4.683183837890625,-0.017972268164157867,0.012530322186648846,0.038632575422525406,-0.11751700937747955,-0.5072322487831116,-0.8537594676017761,-0.00923776626586914,-0.007156789302825928,0.008422553539276123,0.9335332109432644,0.27035720214371056,0.00522044264969114,0.23536255082027238
1714155365810174000,4.693174072265625,-0.01353730633854866,0.005962434224784374,0.0341922864317894,-0.1176137700676918,-0.5071499943733215,-0.8537949919700623,-0.008194960653781891,-0.010550260543823242,0.008610725402832031,0.9334986429892969,0.2703244959766983,0.0052112439885722145,0.23553756911181623
1714155365820162800,4.703162841796875,-0.005401774775236845,0.009222409687936306,0.031994447112083435,-0.11771799623966217,-0.507114589214325,-0.8538016676902771,-0.008273832499980927,-0.005763828754425049,0.006633758544921875,0.9334585649280833,0.2703185327481312,0.005202034613821252,0.23570296771444876
1714155365830153000,4.713153076171875,-0.003318650182336569,0.009108426980674267,0.030050337314605713,-0.11782048642635345,-0.5070747137069702,-0.8538112044334412,-0.008064545691013336,0.0018256902694702148,0.008169114589691162,0.9334215363534355,0.27030994268473424,0.0051905788557431165,0.23585976848564316
1714155365840142800,4.723142822265625,-0.008799009956419468,0.004424192477017641,0.033346131443977356,-0.11794953793287277,-0.5069482326507568,-0.8538684844970703,-0.009980157017707825,0.002431631088256836,0.009019911289215088,0.9333942649671111,0.27025755761278475,0.005157215897600417,0.23602850121742863
1714155365850132000,4.733132080078125,-0.016260920092463493,-0.0014632577076554298,0.030352206900715828,-0.11815502494573593,-0.5067451596260071,-0.8539606332778931,-0.009866230189800262,0.00206071138381958,0.010912537574768066,0.9333777551063133,0.27017392765885057,0.00507323131457621,0.23619138739869777
1714155365860121900,4.743121826171875,-0.025315934792160988,0.0007045555394142866,0.02193448878824711,-0.11835833638906479,-0.5064966678619385,-0.8540799021720886,-0.008030220866203308,-0.0027043819427490234,0.012542426586151123,0.9333770251129997,0.27006537662624225,0.0049742333201244215,0.23632056988928596
1714155365870111000,4.753111083984375,-0.03556324541568756,-0.002368732588365674,0.020347245037555695,-0.11852211505174637,-0.5062063336372375,-0.8542292714118958,-0.008431032299995422,-0.008777797222137451,0.014187216758728027,0.9333920377041098,0.2699287575043904,0.004880391145644092,0.23641932488270337
1714155365880100900,4.763100830078125,-0.03637050464749336,-0.007795722223818302,0.01705251634120941,-0.11871957778930664,-0.5059542059898376,-0.854351282119751,-0.008721843361854553,-0.016995012760162354,0.013622522354125977,0.9334047002301694,0.2698177652794996,0.00476927476502613,0.23649833943044346
1714155365890090000,4.773090087890625,-0.028961587697267532,-0.0029477037023752928,0.007379114627838135,-0.1188773512840271,-0.5057613849639893,-0.8544434309005737,-0.0053444430232048035,-0.020239591598510742,0.011547982692718506,0.933416777418363,0.2697339391699808,0.004677701014031671,0.23654762025556822
1714155365900079900,4.783079833984375,-0.02460726723074913,0.0018257463816553354,-0.001180750783532858,-0.1189531609416008,-0.5055984854698181,-0.8545292615890503,-0.0062452033162117004,-0.01692342758178711,0.006461083889007568,0.9334372199310591,0.2696553645172266,0.004620017947941563,0.23655779613218653
1714155365910070000,4.793070068359375,0.13365134596824646,-0.165129154920578,0.008434325456619263,-0.11932253837585449,-0.5057601928710938,-0.8543820977210999,-0.009644769132137299,-0.01230621337890625,0.0032621026039123535,0.9334117866462094,0.2697947595906046,0.004441745882076534,0.23650291220731676
1714155365920059000,4.803058837890625,0.44171908497810364,0.1080070436000824,0.18902207911014557,-0.12107431888580322,-0.5095661878585815,-0.8518705368041992,-0.009830839931964874,-0.009278416633605957,0.00032329559326171875,0.9326582696141782,0.27211617056329773,0.004187523494601178,0.23682050128879606
1714155365930049000,4.813049072265625,-0.13623210787773132,0.009597648866474628,0.15588437020778656,-0.12143342941999435,-0.50992751121521,-0.851603090763092,-0.01012786477804184,-0.002706766128540039,0.02620941400527954,0.9323653144063029,0.2723597942436282,0.004312051922558818,0.2376897104215514
1714155365940038000,4.823037841796875,0.20232100784778595,-0.06774667650461197,0.08471903949975967,-0.12220891565084457,-0.5102673172950745,-0.8512885570526123,-0.060759223997592926,-0.022127091884613037,0.04576188325881958,0.9321341174776306,0.27265101389221175,0.004139690784949843,0.23826504408643803
1714155365950028000,4.833028076171875,0.056432779878377914,-0.17183393239974976,-0.11762314289808273,-0.12328694760799408,-0.511492908000946,-0.8503971695899963,-0.012653619050979614,-0.054821789264678955,0.04662519693374634,0.9319665048579705,0.27347359514281455,0.003690281527750486,0.23798528225075644
1714155365960017000,4.843016845703125,0.017645487561821938,-0.10858625173568726,-0.17936167120933533,-0.12362125515937805,-0.5120986104011536,-0.8499839901924133,0.049829743802547455,0.024030983448028564,0.00663071870803833,0.9321008579064011,0.273855696339369,0.0033253283650143267,0.23702325392245774
1714155365970007000,4.853007080078125,-0.08261293917894363,-0.09125573188066483,-0.13851943612098694,-0.12366360425949097,-0.5121527910232544,-0.8499451875686646,0.03093593567609787,0.009345173835754395,0.01095592975616455,0.9323143614713234,0.27389430039861784,0.003052430301396486,0.23614082450783946
1714155365979996000,4.862995849609375,-0.16206131875514984,-0.05143454670906067,-0.1519964337348938,-0.12356274574995041,-0.5113198161125183,-0.8504612445831299,0.0019349157810211182,-0.042070746421813965,-0.0005214214324951172,0.932649904320093,0.27342601238649383,0.0027581323416728948,0.23536072183571077
1714155365989986000,4.872986083984375,-0.2191171497106552,0.10173982381820679,-0.1479918360710144,-0.12267249822616577,-0.5099355578422546,-0.8514207005500793,-0.008934564888477325,-0.01890355348587036,-0.009983718395233154,0.9330807761239424,0.27254680503490814,0.002810752644327119,0.23467128425300562
1714155365999976000,4.882975830078125,-0.23791438341140747,0.29727575182914734,-0.10088344663381577,-0.12029681354761124,-0.5080887675285339,-0.8528624773025513,-0.03329815715551376,-0.002699136734008789,-0.016659557819366455,0.933548556370877,0.2712110222373601,0.003651578033143643,0.234346423199864
1714155366009965000,4.892965087890625,-0.03362568840384483,0.1291821002960205,-0.005033612251281738,-0.1183478981256485,-0.5071561932563782,-0.8536898493766785,-0.0643303245306015,0.007873296737670898,-0.026131868362426758,0.9337653021095269,0.27043441737991336,0.004505011865591629,0.2343657832831525
1714155366019955000,4.902954833984375,-0.0028906273655593395,-0.0752330869436264,0.032436128705739975,-0.11846654117107391,-0.5071308016777039,-0.8536884784698486,-0.08531460165977478,0.00005072355270385742,-0.015330076217651367,0.933728518644833,0.27043603659484433,0.004484104742013856,0.23451092580888905
