time,seconds_elapsed,rotationRateX,rotationRateY,rotationRateZ,gravityX,gravityY,gravityZ,accelerationX,accelerationY,accelerationZ,quaternionW,quaternionX,quaternionY,quaternionZ
1714155426631903000,0.054903076171875,0.03960474207997322,-0.13793401420116425,-0.07068898528814316,-0.031579308211803436,-0.31624069809913635,-0.9481532573699951,-0.03743620216846466,-0.024778038263320923,-0.0005772113800048828,0.9869533012138445,0.16021057204450476,-0.015998379790170773,-3.469446951953614e-18
1714155426641891800,0.064891845703125,0.022475022822618484,-0.1375795602798462,-0.06668732315301895,-0.03269817307591438,-0.3165484368801117,-0.94801265001297,-0.031983841210603714,-0.02698799967765808,0.0021660923957824707,0.986917601416101,0.16036475608861273,-0.016638312418335622,-0.0004462123687203924
1714155426651882000,0.074882080078125,0.004419856704771519,-0.12813572585582733,-0.057589899748563766,-0.03424622491002083,-0.31752291321754456,-0.9476320147514343,-0.028070680797100067,-0.02889743447303772,0.004898250102996826,0.9868209042594753,0.16086708043225764,-0.017486607435685187,-0.0008270033954756346
1714155426661870800,0.084870849609375,0.006065956316888332,-0.12488186359405518,-0.04841717332601547,-0.035608258098363876,-0.31833648681640625,-0.9473087787628174,-0.02629665657877922,-0.029045194387435913,0.009076416492462158,0.9867386539335582,0.1612857353664253,-0.01823497810810814,-0.001172006275729047
1714155426671861000,0.094861083984375,0.01124974712729454,-0.1303565353155136,-0.04496511444449425,-0.03699282184243202,-0.3189994692802429,-0.9470326900482178,-0.018671251833438873,-0.026535898447036743,0.0067403316497802734,0.986668271426083,0.1616265338864847,-0.018987535437825123,-0.0014724594885521004
1714155426681851000,0.104850830078125,0.027450021356344223,-0.13602586090564728,-0.04541785269975662,-0.038562871515750885,-0.31962236762046814,-0.9467599987983704,-0.009410768747329712,-0.017932653427124023,0.0037210583686828613,0.9865987372603846,0.16194650256321388,-0.0198327355387355,-0.0017630218353369212
1714155426691840000,0.114840087890625,0.03507614508271217,-0.13162179291248322,-0.03708748519420624,-0.04024672508239746,-0.32020169496536255,-0.9464941024780273,-0.0042936839163303375,-0.015461176633834839,0.002844870090484619,0.9865308408551792,0.16224387738266272,-0.020733350428655043,-0.0020384534809469723
1714155426701830000,0.124829833984375,0.043705053627491,-0.12636364996433258,-0.03431779891252518,-0.041841160506010056,-0.3208126723766327,-0.9462180137634277,-0.0022414885461330414,-0.019168496131896973,0.0008750557899475098,0.9864603233987234,0.16255802789426255,-0.021584003165433303,-0.002283380264317257
1714155426711819300,0.1348193359375,0.045157648622989655,-0.13112591207027435,-0.027672745287418365,-0.043347135186195374,-0.3215028643608093,-0.945915937423706,-0.001025427132844925,-0.02490219473838806,0.0036094188690185547,0.9863864014613295,0.16297004596926318,-0.021972695875358696,0
1714155426721809200,0.14480908203125,0.04811748117208481,-0.13259278237819672,-0.034396957606077194,-0.044786352664232254,-0.3222545087337494,-0.9455930590629578,0.0003069750964641571,-0.030070960521697998,0.005636394023895264,0.9863045725137902,0.16335912251380988,-0.02274350430586628,-0.00023779648973979925
1714155426731799000,0.154799072265625,0.05241097882390022,-0.12926356494426727,-0.04920906573534012,-0.04612512141466141,-0.32310715317726135,-0.9452376961708069,-0.001711186021566391,-0.029676109552383423,0.005494654178619385,0.9862143128490095,0.16379937295512556,-0.023471874447670477,-0.0005234293348071843
1714155426741788200,0.1647880859375,0.05178806558251381,-0.12593461573123932,-0.05674820765852928,-0.04735522344708443,-0.3239993751049042,-0.9448713660240173,-0.003975346684455872,-0.0287228524684906,0.005876004695892334,0.9861211834873388,0.16425846830577429,-0.024155201504417037,-0.0008665821318679968
1714155426751778000,0.174778076171875,0.05853038653731346,-0.12003891170024872,-0.060058049857616425,-0.04842403903603554,-0.3248826563358307,-0.9445138573646545,-0.005912516266107559,-0.0306624174118042,0.007853090763092041,0.9860301459524946,0.164711536873503,-0.024762735827733088,-0.0012432969950625754
1714155426761767200,0.18476708984375,0.05315692722797394,-0.1132877990603447,-0.06530900299549103,-0.04929172992706299,-0.3256482481956482,-0.9442052245140076,-0.00855434313416481,-0.031453222036361694,0.005911827087402344,0.985951318813143,0.1651020452033959,-0.02527232081783342,-0.0016439146695005347
1714155426771757000,0.194757080078125,0.05603080242872238,-0.10607516020536423,-0.0805358961224556,-0.04999496415257454,-0.32637467980384827,-0.9439173936843872,-0.01181839406490326,-0.03086411952972412,0.0038082003593444824,0.9858774584956046,0.16547004871735166,-0.02570905702115067,-0.0021061055320445547
1714155426781746200,0.20474609375,0.05475807562470436,-0.09417508542537689,-0.08558444678783417,-0.05053602159023285,-0.3271309733390808,-0.9436267614364624,-0.01617540791630745,-0.032091498374938965,0.005440115928649902,0.9858025574964139,0.16585222914188608,-0.026070331702378234,-0.002605863137735264
1714155426791736000,0.214736083984375,0.06603400409221649,-0.08291205018758774,-0.08747968822717667,-0.05096788704395294,-0.3280513882637024,-0.9432839155197144,-0.019542984664440155,-0.033459872007369995,0.0058754682540893555,0.9857141789233455,0.16631979425199767,-0.026377315279910944,-0.003105768021412096
1714155426801726200,0.224726318359375,0.06999732553958893,-0.07396063208580017,-0.09714243561029434,-0.05127197504043579,-0.3290995955467224,-0.9429022669792175,-0.021359868347644806,-0.031068921089172363,0.0019537806510925293,0.9856155932131481,0.16685339302230792,-0.02662369494450883,-0.0036243905545326714
1714155426811715000,0.234715087890625,0.06833466142416,-0.06818103790283203,-0.11265281587839127,-0.0515068955719471,-0.33016645908355713,-0.9425163865089417,-0.0233832448720932,-0.02325761318206787,-0.0008124113082885742,0.985515470721415,0.16739513233604789,-0.02684528230620255,-0.004199605966731114
1714155426821705200,0.244705322265625,0.05496186017990112,-0.05681280046701431,-0.1228007897734642,-0.051653411239385605,-0.33114930987358093,-0.9421635270118713,-0.023755531758069992,-0.018154919147491455,-0.0004023909568786621,0.9854230451224909,0.1678912378636118,-0.027032841559114465,-0.004836937886943091
1714155426831694000,0.254694091796875,0.03965289145708084,-0.051762115210294724,-0.1293097585439682,-0.05174943804740906,-0.33201339840888977,-0.9418541193008423,-0.02370528131723404,-0.022661954164505005,-0.0008643865585327148,0.9853410197211493,0.16832436630315795,-0.02720039549718483,-0.005506910184711888
1714155426841684200,0.264684326171875,0.02658316306769848,-0.042441584169864655,-0.141395702958107,-0.05177673324942589,-0.3327431380748749,-0.9415950179100037,-0.026500854641199112,-0.02823406457901001,-0.0043125152587890625,0.9852709873142482,0.1686863697142911,-0.027338624108790968,-0.006210261802421273
1714155426851674000,0.274674072265625,0.014149662107229233,-0.03013484925031662,-0.15544821321964264,-0.051741745322942734,-0.33334267139434814,-0.9413848519325256,-0.032471511512994766,-0.029343515634536743,-0.00870358943939209,0.9852126216403483,0.1689788281102883,-0.02745402126794554,-0.006966412167227289
1714155426861663000,0.2846630859375,0.0030141868628561497,-0.019875021651387215,-0.16275645792484283,-0.051636893302202225,-0.33383306860923767,-0.9412168264389038,-0.038695137947797775,-0.030501067638397217,-0.009207308292388916,0.9851642163459515,0.16921349164057445,-0.027538574899154365,-0.007750984928518185
1714155426871653000,0.294653076171875,-0.00008940743282437325,-0.008784553036093712,-0.18248969316482544,-0.05142446979880333,-0.3342670798301697,-0.9410744309425354,-0.04241708666086197,-0.03075370192527771,-0.0026816725730895996,0.9851210455034015,0.16941707437558248,-0.027579759020802102,-0.008601057986112668
1714155426881642000,0.30464208984375,0.008740303106606007,0.007933706045150757,-0.19551387429237366,-0.051048558205366135,-0.33468106389045715,-0.9409477710723877,-0.048133574426174164,-0.025456905364990234,0.0008842945098876953,0.9850805735022548,0.16960908320846774,-0.02754785511777592,-0.009507611489364912
1714155426891632000,0.314632080078125,0.0180913545191288,0.02534065954387188,-0.21563999354839325,-0.0504801869392395,-0.3350983262062073,-0.940829873085022,-0.052013102918863297,-0.017074555158615112,0.004108071327209473,0.985040736606962,0.16980188271709398,-0.027429508695968084,-0.01047744045833657
1714155426901621000,0.32462109375,0.01834195666015148,0.03327874466776848,-0.24681708216667175,-0.04974040016531944,-0.3355373740196228,-0.9407128095626831,-0.048968710005283356,-0.011462748050689697,0.0071190595626831055,0.9849989286966792,0.17000401844504126,-0.02724399616750093,-0.011559174421098516
1714155429898496500,3.32149658203125,-0.0892365425825119,-0.026388846337795258,-0.06998664140701294,-0.09410262107849121,-0.48766911029815674,-0.8679421544075012,-0.022093072533607483,0.00016602873802185059,-0.007118880748748779,0.962811576844651,0.25556837266403376,-0.02671580570747586,0.0834572071123299
1714155429908486700,3.331486572265625,-0.13228702545166016,-0.037618864327669144,-0.06236887350678444,-0.09449762105941772,-0.4868854880332947,-0.8683391213417053,-0.03794868290424347,0.006080985069274902,-0.00020641088485717773,0.9629413874142628,0.2551460775914385,-0.02703565055464808,0.08314868983279856
1714155429918475500,3.3414755859375,-0.18267083168029785,-0.06530749052762985,-0.09537476301193237,-0.09483001381158829,-0.4859488308429718,-0.8688274025917053,-0.02328827977180481,-0.008573293685913086,0.0028300881385803223,0.9631057372477881,0.2546321671504406,-0.02736367256549411,0.08271106233096118
1714155429928465700,3.351465576171875,-0.20602978765964508,-0.07530473172664642,-0.13925740122795105,-0.09502575546503067,-0.48484164476394653,-0.8694243431091309,-0.0032408535480499268,-0.020498991012573242,0.0015349388122558594,0.9633194906271402,0.2540095736402887,-0.02769408454826543,0.08202299905002111
1714155429938454500,3.36145458984375,-0.17064861953258514,-0.06655144691467285,-0.1520128697156906,-0.09495305269956589,-0.4839763641357422,-0.8699142336845398,-0.0006585270166397095,-0.017442762851715088,-0.00563502311706543,0.9635184790359989,0.2535024866658608,-0.02791698663286355,0.08117471694530665
1714155429948444700,3.371444580078125,-0.07759740948677063,-0.058303102850914,-0.045887768268585205,-0.09473960846662521,-0.48365214467048645,-0.8701178431510925,-0.010408714413642883,-0.0013484954833984375,-0.01385432481765747,0.963631514348397,0.2532914584849569,-0.028009334009616957,0.08045722387156613
1714155429958434600,3.3814345703125,-0.0025964011438190937,0.03719492256641388,0.018494682386517525,-0.09462818503379822,-0.48382875323295593,-0.8700317740440369,-0.023596927523612976,0.019290149211883545,-0.024270594120025635,0.9636136580117115,0.2533819958477057,-0.027958486809894944,0.0804039454080056
1714155429968423700,3.391423583984375,0.005436172243207693,0.07116833329200745,-0.041858069598674774,-0.09398991614580154,-0.4841468334197998,-0.869924008846283,-0.04730648547410965,0.03347843885421753,-0.028040409088134766,0.9635859359348579,0.25352573971176845,-0.0276167709114981,0.08040140660161815
1714155429978413600,3.40141357421875,-0.02657635509967804,0.02601177617907524,-0.07163247466087341,-0.09348607063293457,-0.48409155011177063,-0.8700090646743774,-0.044468656182289124,0.015753477811813354,-0.01953256130218506,0.9636240549790236,0.25346429569027473,-0.027410392214627613,0.08020743676847593
1714155429988402700,3.411402587890625,-0.06282256543636322,-0.023384269326925278,-0.06685436517000198,-0.09355506300926208,-0.48368215560913086,-0.8702293038368225,-0.003475584089756012,0.003747403621673584,-0.008005499839782715,0.9637062849862125,0.25323262807485664,-0.027542193093798042,0.07990656182232811
1714155429998392600,3.421392578125,-0.067780040204525,-0.0050598569214344025,-0.05424882844090462,-0.09365939348936081,-0.4832650125026703,-0.8704498410224915,0.014451004564762115,-0.006679505109786987,-0.002337634563446045,0.9637882913331427,0.252998485985968,-0.027692195931998835,0.07960633292559424
1714155430008381700,3.431381591796875,-0.05713921785354614,0.03433255851268768,-0.058653030544519424,-0.0932798758149147,-0.48297566175460815,-0.8706511855125427,-0.0021638646721839905,-0.007029891014099121,0.0008086562156677246,0.9638617519810976,0.2528121554758703,-0.027575987869048406,0.07934941302926043
1714155430018371600,3.44137158203125,-0.05255618691444397,0.03562445566058159,-0.06830166280269623,-0.0926627367734909,-0.4827102720737457,-0.87086421251297,-0.015003293752670288,0.006071418523788452,-0.0003210902214050293,0.9639396722392007,0.2526269073068761,-0.027341132232359584,0.07907378183016045
1714155430028361500,3.451361572265625,-0.02632351592183113,0.018078485503792763,-0.061869066208601,-0.09222335368394852,-0.4823358356952667,-0.8711182475090027,-0.00640946626663208,0.011083334684371948,0.004205465316772461,0.9640281291505712,0.25239035465820087,-0.02720248569966244,0.07879744685086204
1714155430038350600,3.4613505859375,-0.03083197958767414,0.018701132386922836,-0.003312012180685997,-0.09231109172105789,-0.4817849099636078,-0.8714137673377991,0.007029704749584198,0.009632140398025513,0.005263924598693848,0.9641106486709022,0.25208808451648584,-0.027289332220089335,0.07872489622192713
1714155430048340500,3.471340576171875,-0.0655464455485344,0.032473936676979065,-0.0309245977550745,-0.09261491894721985,-0.4808516800403595,-0.8718968629837036,0.0017793402075767517,0.02119588851928711,0.004190623760223389,0.9642314454530371,0.25158888438530497,-0.027469913401018547,0.07877973315891601
1714155430058329600,3.48132958984375,-0.06575869768857956,0.021352576091885567,-0.07381001114845276,-0.09264329820871353,-0.4799746870994568,-0.8723769187927246,-0.013802021741867065,0.006448626518249512,0.005952417850494385,0.9643696080700992,0.2511010523992567,-0.027564276088927177,0.07861178042273753
1714155430068319500,3.491319580078125,-0.04176606610417366,0.0011679455637931824,-0.0653834342956543,-0.09225713461637497,-0.47956383228302,-0.8726438283920288,-0.0020879730582237244,-0.003102242946624756,0.0022825002670288086,0.964465660653865,0.2508457922111202,-0.02746793325670823,0.07828191099509225
1714155430078309600,3.5013095703125,-0.017854874953627586,0.003883570898324251,-0.05730020999908447,-0.09179368615150452,-0.4794674813747406,-0.8727456331253052,0.00957932323217392,0.011159926652908325,-0.006847262382507324,0.9645184653633084,0.25076070112413384,-0.02731776130877099,0.07795623085985398
1714155430088298500,3.511298583984375,-0.0030317208729684353,0.0346851609647274,-0.050012871623039246,-0.09141212701797485,-0.4795495569705963,-0.8727405071258545,-0.006030507385730743,0.016780972480773926,-0.004990696907043457,0.9645359260906881,0.2507808821129609,-0.027178744381372383,0.07772198445425221
1714155430098288600,3.52128857421875,0.003938570618629456,0.04198914393782616,-0.052065104246139526,-0.09102135896682739,-0.47956183552742004,-0.8727746605873108,-0.0198184996843338,0.013222664594650269,-0.002927243709564209,0.9645578578440878,0.25076412919372676,-0.027018898025598564,0.07756048406941118
1714155430108277500,3.531277587890625,0.0002476954832673073,0.022903600707650185,-0.06593138724565506,-0.09055325388908386,-0.4795779883861542,-0.8728144764900208,-0.014061018824577332,0.0141238272190094,-0.000659644603729248,0.9645867714923347,0.2507439421990468,-0.026837218920120448,0.07732909008428909
1714155430118267600,3.541267578125,-0.01102280244231224,0.014279220253229141,-0.06543497741222382,-0.09005884826183319,-0.47955211997032166,-0.8728798627853394,-0.005232304334640503,0.010267972946166992,0.0021370649337768555,0.9646272976890793,0.25069765766089847,-0.026660033057896798,0.07703473891809175
1714155430128256500,3.551256591796875,-0.029528949409723282,0.022381622344255447,-0.05730833485722542,-0.08965492248535156,-0.4792454242706299,-0.8730897903442383,-0.0034999921917915344,0.0017520785331726074,0.008862555027008057,0.9647021616443281,0.2505018672022178,-0.02653127215487245,0.07677661677952391
1714155430138246700,3.56124658203125,-0.04738491028547287,0.03218311816453934,-0.049221910536289215,-0.08937139064073563,-0.4789201319217682,-0.873297393321991,-0.009002037346363068,-0.004432618618011475,0.013067901134490967,0.9647714597321673,0.25030338056086543,-0.026448569450541314,0.07658254277372659
1714155430148236500,3.571236572265625,-0.04517544433474541,0.03531179949641228,-0.03797784820199013,-0.08892542868852615,-0.47860920429229736,-0.8735133409500122,-0.011584222316741943,-0.001966416835784912,0.015298008918762207,0.9648409866958017,0.2501058321442271,-0.026275591417382796,0.0764114397025972
1714155430158225700,3.5812255859375,-0.04802902415394783,0.027852553874254227,-0.03739967569708824,-0.08839390426874161,-0.478122740983963,-0.8738335967063904,-0.010177873075008392,0.001194000244140625,0.012902259826660156,0.9649358402093047,0.24980805078338175,-0.026060219263325052,0.0762606003718924
1714155430168215600,3.591215576171875,-0.04515238478779793,0.009516422636806965,-0.03757964074611664,-0.08815980702638626,-0.4775749742984772,-0.8741567134857178,-0.003255605697631836,0.0065513551235198975,0.006038486957550049,0.9650302666345422,0.24949111013553468,-0.02599650276317755,0.07612492930681236
1714155430178204400,3.601204345703125,-0.042312655597925186,0.006328619085252285,-0.028030874207615852,-0.08818357437849045,-0.4770711660385132,-0.8744294047355652,0.0008422583341598511,0.008336365222930908,0.0049530863761901855,0.9651102448398968,0.24921118293705055,-0.026059300141077865,0.07600657403968382
1714155430188194600,3.611194580078125,-0.041380707174539566,0.0022638363298028708,-0.02548169530928135,-0.08820883184671402,-0.4766071140766144,-0.8746798634529114,0.002561241388320923,0.003859281539916992,0.007217764854431152,0.9651832570619957,0.24895371336875907,-0.026117088524551295,0.07590423013481473
1714155430198183400,3.621183349609375,-0.04379486292600632,-0.003447312628850341,-0.022671528160572052,-0.08819257467985153,-0.47619637846946716,-0.8749051690101624,0.003872498869895935,0.0016174614429473877,0.005718827247619629,0.9652498151724566,0.24872368337076423,-0.026152166904557222,0.07579862848288763
1714155430208173600,3.631173583984375,-0.045604001730680466,-0.011773419566452503,-0.02449040114879608,-0.08820711076259613,-0.4758804440498352,-0.8750755786895752,0.0039480626583099365,0.0028731822967529297,0.007689774036407471,0.9653042647942214,0.24854665636928344,-0.026206064131272872,0.07566679592311046
1714155430218162400,3.641162353515625,-0.04721548408269882,-0.015412362292408943,-0.02526458352804184,-0.0883026123046875,-0.4756428301334381,-0.8751951456069946,0.002273552119731903,0.00042307376861572266,0.006298720836639404,0.965345961597036,0.24841647138896586,-0.026299796630193224,0.07553002424219361
1714155430228151600,3.651151611328125,-0.04117191582918167,-0.015199575573205948,-0.033315517008304596,-0.08843161910772324,-0.4754011332988739,-0.8753134608268738,0.0007393509149551392,0.001478344202041626,0.005486249923706055,0.9653877711595047,0.24828543820036394,-0.026412310568708682,0.07538777235649874
1714155430238141400,3.661141357421875,-0.03635372593998909,-0.021506739780306816,-0.031633198261260986,-0.08854382485151291,-0.475165456533432,-0.8754300475120544,-0.000445440411567688,0.0043096840381622314,0.004717826843261719,0.9654311747915368,0.24815621141606506,-0.026522749426130834,0.07521884851877866
1714155430248130600,3.671130615234375,-0.029452728107571602,-0.02188384346663952,-0.03219639137387276,-0.088615782558918,-0.47491782903671265,-0.8755571842193604,-0.00014460086822509766,0.002658247947692871,0.0036547183990478516,0.9654776795174642,0.24801834308320608,-0.026614198454555007,0.07504476345316703
1714155430258120400,3.681120361328125,-0.0227104052901268,-0.01757005602121353,-0.032784149050712585,-0.0886283814907074,-0.47469496726989746,-0.8756767511367798,-0.0034279078245162964,0.0017182230949401855,0.005361199378967285,0.9655226919831882,0.24789115431666245,-0.026676082318425404,0.07486280547553567
1714155430268110600,3.691110595703125,-0.016984501853585243,-0.014529790729284286,-0.032208576798439026,-0.08856668323278427,-0.4745665490627289,-0.8757525682449341,-0.006983861327171326,-0.0006989836692810059,0.006581425666809082,0.9655560165624943,0.24781265456701412,-0.026694692097660316,0.07468594487738243
1714155430278099500,3.701099365234375,-0.007451982703059912,-0.011959041468799114,-0.03133905306458473,-0.08851289004087448,-0.47451433539390564,-0.875786304473877,-0.007434375584125519,-0.000644385814666748,0.0046773552894592285,0.9655779314261262,0.2477766642773133,-0.0267126449821287,0.07451591171897236
1714155430288089600,3.711089599609375,0.011648315005004406,-0.010440506972372532,-0.03104730322957039,-0.088437020778656,-0.4745844304561615,-0.875756025314331,-0.004916265606880188,0.007207661867141724,0.0027244091033935547,0.9655831128962087,0.24780707781249245,-0.026714281719575298,0.07434674685754748
1714155430298078500,3.721078369140625,0.020395733416080475,-0.00447396095842123,-0.030503220856189728,-0.08834070712327957,-0.47479701042175293,-0.8756504654884338,-0.004966802895069122,0.009388655424118042,0.0002537965774536133,0.9655686235605051,0.24791512766239013,-0.026699211624055273,0.07418035100558931
1714155430308068600,3.731068603515625,0.018012896180152893,-0.003468085313215852,-0.027884466573596,-0.08823494613170624,-0.4750286638736725,-0.8755354881286621,-0.005438767373561859,0.01062735915184021,0.0019087791442871094,0.9655494456298808,0.24803403130502719,-0.026671670901381627,0.07404087695842622
1714155430318057500,3.741057373046875,0.0034025288186967373,-0.002105612074956298,-0.026364600285887718,-0.08813994377851486,-0.47514018416404724,-0.8754845261573792,-0.004831865429878235,0.005001574754714966,0.0018426179885864258,0.9655459070769455,0.2480876180747324,-0.026650749421603774,0.07391521886085266
1714155430328047600,3.751047607421875,-0.010078072547912598,-0.005518186837434769,-0.032636143267154694,-0.08806157112121582,-0.4751233458518982,-0.8755015730857849,-0.0039184242486953735,-0.0029803216457366943,0.0005168318748474121,0.9655611022421609,0.2480708424730435,-0.026647173019846523,0.07377453146361623
1714155430338037500,3.76103759765625,-0.032077111303806305,-0.0024720628280192614,-0.022975528612732887,-0.0880081057548523,-0.4749720096588135,-0.8755890727043152,-0.001438923180103302,-0.008380711078643799,0.0011078715324401855,0.9655936571277701,0.24798141416260117,-0.026658772631837063,0.07364468424818107
1714155430348026600,3.771026611328125,-0.0508466474711895,-0.009016248397529125,-0.02888108789920807,-0.08801103383302689,-0.47465214133262634,-0.8757622241973877,0.001310586929321289,-0.012637346982955933,0.0011742115020751953,0.9656479772916088,0.2478018785138009,-0.026704423827905645,0.07352020286403128
1714155430358016500,3.7810166015625,-0.0581439733505249,-0.012222427874803543,-0.027703970670700073,-0.08804509788751602,-0.4742177128791809,-0.875994086265564,0.003190964460372925,-0.014948606491088867,0.0025047659873962402,0.9657196556032692,0.24755989906807985,-0.02677764219851674,0.07336751038155126
1714155430368005600,3.791005615234375,-0.051715265959501266,-0.016397198662161827,-0.03467559069395065,-0.08808683604001999,-0.47370851039886475,-0.8762653470039368,0.005185827612876892,-0.01168888807296753,0.003126978874206543,0.9658024786926899,0.24727677413317056,-0.026860931504198764,0.07320163951953243
1714155430377995500,3.80099560546875,-0.036852963268756866,-0.013335629366338253,-0.035346176475286484,-0.08810631930828094,-0.4732799530029297,-0.8764949440956116,0.004778072237968445,-0.0039234459400177,0.0025478601455688477,0.9658751221294047,0.2470368242513395,-0.02693209295520664,0.07302604559446316
1714155430387985400,3.8109853515625,-0.012043751776218414,-0.001415853388607502,-0.03363336622714996,-0.08805927634239197,-0.47303327918052673,-0.876632809638977,0.00006183236837387085,0.0031693577766418457,0.004364192485809326,0.9659239955476728,0.24689400672821155,-0.02696184995882607,0.07285125781791861
1714155430397974500,3.820974609375,0.0064228735864162445,0.005583732854574919,-0.033172108232975006,-0.08792000263929367,-0.47302356362342834,-0.8766520619392395,-0.0031902343034744263,0.007538855075836182,0.005573570728302002,0.9659396943756938,0.24687835497493812,-0.02692682725764644,0.07270913543098083
1714155430407964400,3.83096435546875,0.019944489002227783,0.0067352838814258575,-0.03525989130139351,-0.08773038536310196,-0.4732232391834259,-0.8765632510185242,-0.0022964775562286377,0.009355992078781128,0.0007851123809814453,0.9659279312595314,0.24697553945565112,-0.02685976117912534,0.07256022031914405
1714155430417953500,3.84095361328125,0.026438340544700623,0.004535779356956482,-0.03605883941054344,-0.08750873059034348,-0.4735550582408905,-0.8764062523841858,-0.0008091479539871216,0.012373387813568115,-0.003369748592376709,0.965899929020871,0.24714352915471752,-0.026776187413787768,0.07239213718687368
1714155430427943400,3.850943359375,0.024782972410321236,0.008062336593866348,-0.031719084829092026,-0.08727551996707916,-0.47394880652427673,-0.8762165904045105,0.0016279295086860657,0.007975876331329346,-0.002537071704864502,0.9658623850967671,0.24734555782703732,-0.02668110343473972,0.07223694227112251
1714155430437932500,3.8609326171875,0.011721232905983925,0.005297176539897919,-0.033515121787786484,-0.08705689758062363,-0.4742778241634369,-0.8760603070259094,0.00575806200504303,0.000004082918167114258,0.0017011761665344238,0.9658327670390077,0.24751291252732455,-0.02659337335223393,0.0720919841802483
1714155430447922400,3.87092236328125,0.0033202911727130413,0.0002891023177653551,-0.038423191756010056,-0.08683779835700989,-0.47446247935295105,-0.8759820461273193,0.005935698747634888,-0.002130568027496338,0.0020502209663391113,0.96582540624059,0.24760001962190428,-0.02651792859698778,0.07191926154096817
1714155430457912300,3.880912353515625,-0.0023908577859401703,0.006080145947635174,-0.035582397133111954,-0.08663322776556015,-0.47452810406684875,-0.8759667873382568,0.0033507496118545532,-0.0017597973346710205,0.003652334213256836,0.9658342772234731,0.24762225841659785,-0.02645423886051997,0.0717471949781224
1714155430467901400,3.8909013671875,0.5232113003730774,0.12343153357505798,0.19546812772750854,-0.08689205348491669,-0.47646886110305786,-0.8748869895935059,0.0006951466202735901,0.0008371174335479736,0.005380153656005859,0.9655331032102215,0.24871146859089943,-0.026440967005882613,0.07203688345245114
1714155430477891300,3.900891357421875,0.49609020352363586,0.28169041872024536,0.22255541384220123,-0.08601881563663483,-0.4806991219520569,-0.8726564049720764,-0.017466306686401367,0.02363729476928711,0.003912508487701416,0.9648357393388777,0.251049030764672,-0.025420352183684023,0.07362284151308186
1714155430487880400,3.91088037109375,0.6005023121833801,0.21277499198913574,0.07887959480285645,-0.08455250412225723,-0.48513397574424744,-0.8703424334526062,-0.10429027676582336,0.07494714856147766,0.009502589702606201,0.9641536808659105,0.2534611411108932,-0.024212277853652764,0.07469348530571418
1714155430497870300,3.920870361328125,0.4024451971054077,0.13535797595977783,0.11910291016101837,-0.08363078534603119,-0.4894339442253113,-0.8680208921432495,-0.04751851409673691,-0.004950851202011108,0.027505815029144287,0.9634903697099086,0.25581999156077107,-0.02335977209558271,0.07547681343732442
1714155430507859500,3.930859375,0.18844850361347198,0.06421136111021042,0.10896425694227219,-0.08331429958343506,-0.4917129874229431,-0.8667623996734619,0.04818855971097946,-0.010285943746566772,0.02719336748123169,0.9631088852652547,0.2570865664637941,-0.02291924031082565,0.07617444074561774
1714155430517849300,3.940849365234375,-0.004505780525505543,-0.044006191194057465,0.11040156334638596,-0.08376123756170273,-0.49237754940986633,-0.8663419485092163,0.02950098365545273,-0.015709638595581055,0.049279630184173584,0.9629542478477321,0.2574905831338037,-0.022969939422200623,0.07674696000435084
1714155430527839500,3.950839599609375,-0.1363404542207718,-0.050088584423065186,0.03743468597531319,-0.08478137105703354,-0.49155348539352417,-0.8667106032371521,0.020709708333015442,-0.04792103171348572,0.034313201904296875,0.9630229869828182,0.2570900082207917,-0.02343971718814822,0.07708467489788375
1714155430537828400,3.960828369140625,-0.29853707551956177,-0.015583338215947151,-0.2428411841392517,-0.08443398028612137,-0.4897524416446686,-0.8677634596824646,0.024924688041210175,-0.024621397256851196,0.021816253662109375,0.9633422023014189,0.2560597793776315,-0.0234873401239637,0.07650808194628235
1714155430547818500,3.970818603515625,-0.3965269923210144,0.02576143853366375,-0.23798470199108124,-0.08313501626253128,-0.4868505597114563,-0.8695200681686401,0.009862303733825684,-0.0074579715728759766,0.0015391111373901367,0.9639011263700902,0.2543579744898014,-0.023280827276881702,0.07519754118134606
1714155430557807400,3.980807373046875,-0.4281802475452423,0.0011090897023677826,-0.06666728109121323,-0.08229155838489532,-0.4832722842693329,-0.8715939521789551,0.004837937653064728,-0.011646568775177002,-0.008090496063232422,0.964495363295169,0.25232080189503747,-0.023178414454231615,0.07446991059439462
1714155430567797500,3.990797607421875,-0.3521687686443329,-0.3379424810409546,-0.21243254840373993,-0.0829387828707695,-0.4798644483089447,-0.8734135627746582,-0.014519102871418,-0.018762290477752686,-0.008880078792572021,0.9650198677831526,0.25045080174896367,-0.023824599000380264,0.07377968174564428
1714155430577787400,4.000787353515625,-0.2027137726545334,-0.4220520257949829,-0.3501768410205841,-0.0850215032696724,-0.47773316502571106,-0.8743811249732971,-0.0093998983502388,0.0015368163585662842,-0.0026787519454956055,0.9654212793160278,0.2493178096703763,-0.0254961840634554,0.07178063696510352
1714155430587776500,4.010776611328125,-0.13477951288223267,-0.24561707675457,-0.25688162446022034,-0.08658245950937271,-0.4765191674232483,-0.8748902678489685,0.08890178799629211,-0.007550716400146484,0.005414009094238281,0.9656956561529909,0.24866471553264827,-0.026846205111061713,0.06983687550404852
1714155430597766400,4.020766357421875,-0.0656350776553154,-0.011851982213556767,-0.09498007595539093,-0.08677782863378525,-0.4758273959159851,-0.8752473592758179,0.013840809464454651,0.019497990608215332,0.02237260341644287,0.9658621568009266,0.24826289296529583,-0.0272371771572968,0.068804307007541
1714155430607755500,4.030755615234375,-0.044090524315834045,0.07702115923166275,0.07385394722223282,-0.08639349043369293,-0.4753709137439728,-0.875533401966095,-0.11799800395965576,0.003553837537765503,0.03840571641921997,0.9659336545435189,0.24799562414288306,-0.02704576437555105,0.06884125603394498
1714155430617745400,4.040745361328125,-0.04184601455926895,0.031045949086546898,0.07178360223770142,-0.08624599874019623,-0.4749329388141632,-0.8757855892181396,-0.10430576652288437,-0.017025738954544067,0.03453803062438965,0.9659649766871707,0.2477610810305078,-0.026863702591788816,0.06931518237157011
1714155430627734500,4.050734619140625,-0.04576272517442703,-0.06632161885499954,-0.0388941764831543,-0.08649759739637375,-0.47453445196151733,-0.8759767413139343,-0.023228362202644348,-0.012724518775939941,0.0263216495513916,0.9660101338016844,0.24755414846198112,-0.026991927308647565,0.06937602486876962
1714155430637724400,4.060724365234375,-0.04257785528898239,-0.12079790979623795,-0.09744563698768616,-0.0869884043931961,-0.47420430183410645,-0.8761069178581238,0.02795214205980301,-0.01296311616897583,0.017281293869018555,0.9660785851047581,0.24737991243301607,-0.027380913826014704,0.06889035234675475
1714155430647714300,4.07071435546875,-0.03112173266708851,-0.10541708767414093,-0.07274135202169418,-0.08759472519159317,-0.4739460051059723,-0.8761862516403198,0.02488110214471817,-0.00939139723777771,0.0092124342918396,0.9661400346275052,0.2472473107280411,-0.027850271620526584,0.06831257799176857
1714155430657703400,4.080703369140625,0.0018348856829106808,-0.05408225953578949,-0.03293881565332413,-0.08806291222572327,-0.4738501310348511,-0.8761911988258362,-0.00406966358423233,-0.0018121600151062012,0.006562292575836182,0.9661665302936089,0.24720424620176623,-0.02818633602900335,0.06795499342520854
1714155430667693300,4.090693359375,0.020964637398719788,-0.03259401395916939,-0.033032290637493134,-0.08812975883483887,-0.47401776909828186,-0.8760938048362732,-0.024434342980384827,0.003467172384262085,0.011744439601898193,0.9661558306943105,0.2472934318820927,-0.02826782613046643,0.06774848303296774
1714155430677682400,4.100682373046875,0.005302853882312775,-0.06798982620239258,-0.05450695753097534,-0.0883161872625351,-0.4741746485233307,-0.8759901523590088,-0.013170033693313599,0.006660550832748413,0.01751542091369629,0.9661477911628696,0.2473799581066242,-0.02842690883740846,0.06748120321442244
1714155430687672300,4.11067236328125,-0.017850935459136963,-0.11464041471481323,-0.06820439547300339,-0.08901987969875336,-0.47419512271881104,-0.8759077787399292,0.015884488821029663,0.0034004151821136475,0.026466310024261475,0.9661539760120226,0.24740949965985237,-0.028890167647017607,0.06708549533990896
1714155430697662500,4.120662353515625,-0.038799360394477844,-0.11938616633415222,-0.06928110867738724,-0.0898953452706337,-0.4740370810031891,-0.8759039044380188,0.031271062791347504,-0.0049668848514556885,0.031345248222351074,0.9661852041948936,0.24734549376960838,-0.029465963810327563,0.06661974035461958
1714155430707651300,4.1306513671875,-0.04227824509143829,-0.10708662867546082,-0.05960777401924133,-0.0906250923871994,-0.4737611711025238,-0.8759779930114746,0.024249352514743805,-0.008172452449798584,0.033296167850494385,0.9662354056619799,0.24721039032196265,-0.029967056754095455,0.06616759069044739
1714155430717641500,4.140641357421875,-0.04088333249092102,-0.10748183727264404,-0.05505649745464325,-0.09123750030994415,-0.473479300737381,-0.8760668039321899,0.013661809265613556,-0.005402565002441406,0.03237783908843994,0.9662868391748682,0.24706783410838837,-0.030398640280093165,0.06575095393155012
1714155430727630300,4.15063037109375,-0.04142598435282707,-0.11902930587530136,-0.056437548249959946,-0.09193091094493866,-0.47319290041923523,-0.87614905834198,0.013363398611545563,0.0012843012809753418,0.031773507595062256,0.9663368518072095,0.2469256479860807,-0.030873865062172188,0.06532695684791281
1714155430737620500,4.160620361328125,-0.04153863340616226,-0.12653063237667084,-0.061359602957963943,-0.09273454546928406,-0.4728863835334778,-0.8762298822402954,0.015814974904060364,0.004105806350708008,0.02541506290435791,0.9663877558405589,0.24677594272194678,-0.03141176649052928,0.06488204238848518
1714155430747609300,4.170609375,-0.04370724782347679,-0.12510131299495697,-0.049246348440647125,-0.09361550956964493,-0.472574383020401,-0.8763045072555542,0.012835480272769928,0.0021458864212036133,0.017539918422698975,0.9664351718962501,0.24662688297041085,-0.03198325269984041,0.0644618087853372
1714155430757599200,4.18059912109375,-0.03347484767436981,-0.12315401434898376,-0.04333413019776344,-0.09452017396688461,-0.4723002314567566,-0.8763551712036133,0.007697656750679016,0.0014139115810394287,0.009335577487945557,0.9664735943240462,0.24650057919880355,-0.032555566509740154,0.0640809520622618
1714155430767589600,4.190589599609375,-0.011332315392792225,-0.10899344831705093,-0.04309111461043358,-0.09526031464338303,-0.4722130596637726,-0.8763220310211182,0.003707572817802429,0.009551316499710083,0.0053046345710754395,0.9664890862217358,0.24647073101283162,-0.033032813228330835,0.06371670397442104
1714155430777578200,4.200578125,-0.008705905638635159,-0.11428088694810867,-0.04178297147154808,-0.09584898501634598,-0.47232571244239807,-0.8761971592903137,0.00029844045639038086,0.013737976551055908,0.0011361241340637207,0.9664810525127435,0.24654428261880879,-0.033426755769575114,0.0633483228460483
1714155430787568600,4.210568603515625,-0.00813034363090992,-0.1186322271823883,-0.03821539878845215,-0.09654887020587921,-0.4724471867084503,-0.8760547637939453,0.0023868829011917114,0.01212000846862793,-0.004896104335784912,0.9664675986204051,0.24662742103185695,-0.03387515038497029,0.06299056669260292
1714155430797557200,4.22055712890625,-0.012201784178614616,-0.10560803860425949,-0.03825002163648605,-0.0972546711564064,-0.4725440740585327,-0.8759244680404663,0.0016736090183258057,0.01276618242263794,-0.005118012428283691,0.966456202775996,0.24669749694384774,-0.03432379123160452,0.0626471541825081
1714155430807547600,4.230547607421875,-0.013877710327506065,-0.09888755530118942,-0.027655169367790222,-0.0978827178478241,-0.4725817143917084,-0.8758341670036316,-0.00010924041271209717,0.012513935565948486,-0.005681335926055908,0.9664522421838351,0.246733095639712,-0.03472313068086221,0.06234716846653056
1714155430817537500,4.24053759765625,-0.012138666585087776,-0.09918343275785446,-0.025370443239808083,-0.09851285070180893,-0.47256025671958923,-0.8757750988006592,-0.0015848055481910706,0.014781296253204346,-0.012026965618133545,0.966454369079043,0.24673706350385377,-0.03511802007829868,0.06207604093518872
1714155430827526700,4.250526611328125,-0.013654484413564205,-0.08468198776245117,-0.021264847368001938,-0.09910649806261063,-0.47251832485198975,-0.8757307529449463,-0.004088699817657471,0.01888972520828247,-0.013337790966033936,0.9664588866282521,0.2467289326869717,-0.03548868504128672,0.06182855764105884
1714155430837516500,4.2605166015625,-0.016281161457300186,-0.07129959762096405,-0.01934603974223137,-0.09959401190280914,-0.4724430441856384,-0.8757160305976868,-0.00791943073272705,0.019348502159118652,-0.015610814094543457,0.9664681696688209,0.24669959167696687,-0.03579503985722102,0.061622475676737745
1714155430847505700,4.270505615234375,-0.024149522185325623,-0.0605313740670681,-0.0039706118404865265,-0.10005265474319458,-0.4722149074077606,-0.8757868409156799,-0.010512538254261017,0.015763431787490845,-0.015433251857757568,0.9664956454114807,0.24658705889794785,-0.03607503996852477,0.06147913663989262
1714155430857495600,4.28049560546875,-0.03803524747490883,-0.051953062415122986,0.001496857963502407,-0.10050835460424423,-0.4718214273452759,-0.8759467005729675,-0.009599074721336365,0.012257158756256104,-0.015517473220825195,0.9665420156431836,0.24638569543432046,-0.036341888608845324,0.06140054406937019
1714155430867485400,4.2904853515625,-0.052820369601249695,-0.04963584616780281,0.007420926354825497,-0.10090428590774536,-0.47130531072616577,-0.8761789798736572,-0.0055257827043533325,0.008109450340270996,-0.012813270092010498,0.9666054204261305,0.24611534868318444,-0.03657506405758841,0.06134720490295731
1714155430877474600,4.300474609375,-0.05705292895436287,-0.05312938243150711,0.014813595451414585,-0.10136878490447998,-0.4707041382789612,-0.8764485120773315,-0.0007430464029312134,0.005646705627441406,-0.015183568000793457,0.9666762128611655,0.24580234251506772,-0.03683687352734218,0.061330019941829225
1714155430887464400,4.31046435546875,-0.05660046264529228,-0.04759186878800392,0.02062041684985161,-0.10186752676963806,-0.47008296847343445,-0.8767240047454834,0.0008085519075393677,0.008092552423477173,-0.017028987407684326,0.9667470293084404,0.24548071416205158,-0.03711068500530234,0.06133727131248418
1714155430897453600,4.32045361328125,-0.05404622480273247,-0.043519098311662674,0.02682718075811863,-0.1023542657494545,-0.4694267213344574,-0.877018928527832,0.0021650493144989014,0.010045558214187622,-0.014277458190917969,0.9668203229431157,0.2451409575075789,-0.03736906559378417,0.06138493315291706
1714155430907443500,4.330443359375,-0.04318995401263237,-0.04103676602244377,0.03521933779120445,-0.10286898165941238,-0.4687817096710205,-0.8773036599159241,0.002923905849456787,0.010972201824188232,-0.009354054927825928,0.9668877342420422,0.24481061930374026,-0.037628813669416915,0.06148284828018557
1714155430917432600,4.3404326171875,-0.04318436235189438,-0.03733763471245766,0.04904780164361,-0.10344547778367996,-0.46817758679389954,-0.8775584101676941,0.004644811153411865,0.01012393832206726,-0.005513429641723633,0.9669431657663915,0.24450800653854574,-0.03790276887385087,0.06164590515498927
1714155430927422500,4.35042236328125,-0.04110970348119736,-0.04086232930421829,0.051534391939640045,-0.10409311950206757,-0.46758678555488586,-0.8777968287467957,0.006696254014968872,0.007992029190063477,-0.0022080540657043457,0.9669922830202053,0.24421712811092275,-0.03820448570122864,0.061842986138102476
1714155430937412600,4.36041259765625,-0.043685514479875565,-0.038231126964092255,0.055083852261304855,-0.1047230139374733,-0.46703407168388367,-0.8780161142349243,0.0088215172290802,0.00830906629562378,0.0021158456802368164,0.9670352250100189,0.24394738764998947,-0.038491797278506754,0.062056760882488855
1714155430947401500,4.3704013671875,-0.03951441869139671,-0.036000728607177734,0.06018739938735962,-0.10530217736959457,-0.46651914715766907,-0.8782205581665039,0.008866623044013977,0.003079146146774292,0.0034494996070861816,0.9670736575680484,0.24369698304757303,-0.03874904918948212,0.062281877510411345
1714155430957391600,4.3803916015625,-0.03786086291074753,-0.04473722726106644,0.06498588621616364,-0.10591451823711395,-0.46603333950042725,-0.8784048557281494,0.009646810591220856,-0.0018774569034576416,-0.00008934736251831055,0.9671056621523513,0.24346483866013477,-0.03901858072850035,0.06252306768337235
1714155430967380500,4.39038037109375,-0.02791091799736023,-0.04615296423435211,0.06618910282850266,-0.10657161474227905,-0.4655839204788208,-0.8785637021064758,0.009388379752635956,0.0003281533718109131,-0.00647658109664917,0.9671301072560013,0.2432553987563425,-0.039306127972940016,0.06278038716945629
1714155430977370600,4.40037060546875,-0.021138234063982964,-0.027094850316643715,0.06713372468948364,-0.1071501225233078,-0.46518564224243164,-0.878704309463501,0.0048246681690216064,0.005499303340911865,-0.0045201778411865234,0.9671488489749003,0.24307158018202557,-0.03954821747164356,0.0630515799835877
1714155430987360500,4.410360595703125,-0.021661652252078056,-0.020041735842823982,0.0627787858247757,-0.10760842263698578,-0.46484115719795227,-0.8788305521011353,-0.00017967075109481812,0.005459994077682495,-0.004912674427032471,0.9671630907833608,0.24291291082572086,-0.03972449668251586,0.06333193086850585
1714155430997349400,4.420349365234375,-0.017743609845638275,-0.021250277757644653,0.07167614251375198,-0.1080288290977478,-0.46453922986984253,-0.878938615322113,-0.005817003548145294,0.001328110694885254,-0.008024215698242188,0.9671716604779718,0.24277679025187188,-0.03987620047991152,0.06362751817897727
1714155431007339500,4.430339599609375,-0.016109546646475792,-0.019522685557603836,0.07120070606470108,-0.10848172754049301,-0.46428537368774414,-0.8790169954299927,-0.008080177009105682,-0.0026183724403381348,-0.014308810234069824,0.9671707008589493,0.2426696835522135,-0.040036626083371614,0.06394952723689523
1714155431017328400,4.440328369140625,-0.0034645916894078255,-0.006899301894009113,0.06348765641450882,-0.10883231461048126,-0.464108943939209,-0.8790667653083801,-0.008095793426036835,0.003323972225189209,-0.015235543251037598,0.9671638505096499,0.24259989766067575,-0.04014838945493275,0.06424605705048012
1714155431027318500,4.450318603515625,-0.005692698992788792,0.006724365055561066,0.055863890796899796,-0.10900881141424179,-0.4640306234359741,-0.8790862560272217,-0.011474594473838806,0.005778640508651733,-0.010256946086883545,0.9671507829962434,0.242575668083448,-0.040173462894275376,0.06451847147125696
1714155431037308400,4.460308349609375,-0.017312869429588318,0.0033181817270815372,0.0585307814180851,-0.10912469774484634,-0.4639112055301666,-0.8791349530220032,-0.014791935682296753,-0.0020312368869781494,-0.006500422954559326,0.967145710001354,0.24252599819318738,-0.04017048263899971,0.06478332447372946
1714155431047297500,4.470297607421875,-0.03996683657169342,0.0029685087502002716,0.05506494268774986,-0.10927063226699829,-0.46360063552856445,-0.8792806267738342,-0.014264538884162903,-0.012885630130767822,-0.0021433234214782715,0.9671652340184754,0.24237289423840425,-0.04018797898899248,0.06505223377024018
1714155431057287400,4.480287353515625,-0.06143191456794739,0.0061866724863648415,0.05286064371466637,-0.10941857099533081,-0.4630556106567383,-0.8795493841171265,-0.010774925351142883,-0.016543418169021606,0.003939032554626465,0.9672176604292911,0.24209054528271737,-0.040217951988086094,0.06530519997201337
1714155431067276500,4.490276611328125,-0.07937741279602051,0.004680122248828411,0.043757230043411255,-0.10959791392087936,-0.4623408019542694,-0.8799030184745789,-0.009023919701576233,-0.018341630697250366,0.007435977458953857,0.9672933627237508,0.2417156362444861,-0.040274542286710895,0.06553841954895917
1714155431077266400,4.500266357421875,-0.09326846152544022,0.005434329621493816,0.04316627234220505,-0.10979072749614716,-0.4615170955657959,-0.8803113102912903,-0.008266538381576538,-0.020996391773223877,0.007355988025665283,0.9673849182335538,0.241280580412772,-0.040348883427804155,0.06574279927621102
1714155431087255600,4.510255615234375,-0.0852840319275856,-0.004460645839571953,0.04261093586683273,-0.11003086715936661,-0.46067166328430176,-0.8807240724563599,-0.008789345622062683,-0.020850002765655518,0.0037556886672973633,0.9674793443484477,0.24083484268396926,-0.04045419075750946,0.06592417422657858
1714155431097245400,4.520245361328125,-0.06234729662537575,-0.007716093212366104,0.0347660630941391,-0.1103191077709198,-0.45991677045822144,-0.8810824751853943,-0.010179564356803894,-0.016050666570663452,0.0007876753807067871,0.9675605585125643,0.24044046033506192,-0.04058516528406139,0.06609099190559145
1714155431107235300,4.5302353515625,-0.03186049312353134,0.008094827644526958,0.0164108257740736,-0.11052883416414261,-0.4594425857067108,-0.8813034892082214,-0.009115338325500488,0.00050392746925354,0.001832723617553711,0.9676088975956066,0.2401950027466999,-0.04067680479809608,0.06621776856313813
1714155431117224400,4.540224365234375,-0.013004514388740063,0.012404887937009335,0.019199954345822334,-0.11059290915727615,-0.4592559039592743,-0.881392776966095,-0.011996209621429443,0.009380996227264404,0.004775404930114746,0.9676244827442985,0.24010010420040995,-0.040688407475207876,0.0663279769252055
1714155431127214300,4.55021435546875,-0.006567654199898243,0.005785067565739155,0.02127036266028881,-0.11068663746118546,-0.4592737555503845,-0.8813717365264893,-0.011261619627475739,0.003890395164489746,0.004876375198364258,0.96761128698075,0.24011870439972044,-0.0407079574050017,0.06644146884619387
1714155431137203500,4.560203369140625,-0.005170026794075966,-0.001388422679156065,0.020518019795417786,-0.11082914471626282,-0.4593854248523712,-0.8812956213951111,-0.010112032294273376,0.0004620552062988281,0.002404630184173584,0.9675843041488529,0.24019054149822966,-0.04075172346119885,0.0665465203209207
1714155431147193300,4.570193359375,0.011151155456900597,0.0021312108729034662,0.016843589022755623,-0.11097173392772675,-0.4595996141433716,-0.8811659812927246,-0.008138388395309448,0.0021716058254241943,0.0018782615661621094,0.9675450783669352,0.2403176426113326,-0.04079761437409461,0.06662987511768206
1714155431157183500,4.58018359375,0.017753930762410164,0.00593846570700407,0.023896172642707825,-0.11104582250118256,-0.459929496049881,-0.8809844851493835,-0.008293181657791138,0.005263298749923706,0.00419926643371582,0.96749176927396,0.2405055984669895,-0.0408020417941565,0.06672306244337745
1714155431167172400,4.59017236328125,0.016961215063929558,-0.0006853481754660606,0.0305267795920372,-0.11119929701089859,-0.4602188169956207,-0.8808140158653259,-0.007773488759994507,0.00428617000579834,0.002777576446533203,0.967437994925557,0.24067683379982757,-0.04083687580233741,0.0668635393639469
1714155431177162500,4.60016259765625,0.010366961359977722,-0.0016994799952954054,0.03606828302145004,-0.1114528551697731,-0.4604070782661438,-0.8806836009025574,-0.009015291929244995,0.003833562135696411,0.001609504222869873,0.9673920060905837,0.24079866206451475,-0.04091704668162284,0.06704192016205122
1714155431187151400,4.6101513671875,-0.0015146778896450996,0.006065232679247856,0.038490425795316696,-0.11167345196008682,-0.46039071679115295,-0.8806642293930054,-0.010763078927993774,0.0033746957778930664,0.004031538963317871,0.9673741976850382,0.2408072065393202,-0.04098509809024321,0.06722722625339543
1714155431197141500,4.6201416015625,-0.013168137520551682,0.0011911150068044662,0.04440397769212723,-0.11192457377910614,-0.46021056175231934,-0.8807265162467957,-0.011152826249599457,0.0017296671867370605,0.004078567028045654,0.9673754348662766,0.24072851165308523,-0.04106743939153404,0.06743968472648229
1714155431207131400,4.63013134765625,-0.024750705808401108,-0.007760833948850632,0.04935399815440178,-0.11225270479917526,-0.4599624276161194,-0.8808143734931946,-0.011953853070735931,0.00016927719116210938,-0.0006400942802429199,0.9673823607506792,0.24061660633659962,-0.041188196820054604,0.06766621723804817
1714155431217120300,4.640120361328125,-0.029899924993515015,-0.0013298331759870052,0.047637589275836945,-0.11255428194999695,-0.4596606194972992,-0.880933403968811,-0.010416314005851746,0.0037127137184143066,-0.0047019124031066895,0.967397326019721,0.24047417715885874,-0.04129718324907544,0.06789234174150663
1714155431227110100,4.650110107421875,-0.03602423891425133,0.0043767886236310005,0.04951618239283562,-0.11280886828899384,-0.45930215716362,-0.8810878396034241,-0.010436378419399261,0.005963504314422607,-0.006012380123138428,0.9674207167168056,0.24029906992887054,-0.04138174701201079,0.06812708931323742
1714155431237099300,4.660099365234375,-0.032750681042671204,0.002407380612567067,0.05838477239012718,-0.1130833625793457,-0.45891451835632324,-0.8812545537948608,-0.01017715036869049,0.003027617931365967,-0.005097925662994385,0.9674453954395792,0.24011004362342353,-0.0414714094543836,0.06838679570705303
1714155431247089200,4.670089111328125,-0.03667367994785309,0.0028076537419110537,0.056765373796224594,-0.113379567861557,-0.4585314095020294,-0.8814159631729126,-0.009270593523979187,-0.0014295876026153564,-0.0037463903427124023,0.9674669580723518,0.23992561599641643,-0.041565924664233186,0.06867180043933142
1714155431257078300,4.680078369140625,-0.028177926316857338,0.008539841510355473,0.05109497159719467,-0.11363827437162399,-0.4581697881221771,-0.8815706372261047,-0.010125786066055298,0.0029237568378448486,-0.0031033754348754883,0.9674879850945131,0.2397506194653594,-0.04164501334913736,0.06893865561618517
1714155431267068200,4.690068115234375,-0.02565000206232071,0.010386744514107704,0.049680233001708984,-0.1138581782579422,-0.45787233114242554,-0.8816968202590942,-0.012438833713531494,0.004960894584655762,-0.0033129453659057617,0.9675022460753153,0.23960862965592192,-0.04170496095773897,0.06919385373542956
1714155431277058000,4.70005810546875,-0.01614012010395527,0.011958541348576546,0.048363566398620605,-0.11404955387115479,-0.45764273405075073,-0.8817912340164185,-0.013376608490943909,0.005387455224990845,-0.0028675198554992676,0.9675083042836812,0.2395025971686892,-0.04174774303057007,0.0694501343399962
1714155431287047200,4.710047119140625,-0.014255400747060776,0.017747454345226288,0.04507755860686302,-0.11419832706451416,-0.4574713110923767,-0.8818609714508057,-0.01338040828704834,0.005597501993179321,0.001825571060180664,0.9675087827619561,0.23942601935921828,-0.041769636896507,0.06969449219041621
1714155431297037000,4.720037109375,-0.010280366986989975,0.010640011169016361,0.04693031683564186,-0.11432309448719025,-0.4572865664958954,-0.8819406032562256,-0.011577188968658447,0.0011402666568756104,0.0035074353218078613,0.9675116275881247,0.23934115374140463,-0.04177921162054199,0.06994064398464098
1714155431307026200,4.730026123046875,-0.00712100462988019,0.002863314002752304,0.03752350062131882,-0.11451373249292374,-0.4571235179901123,-0.8820003867149353,-0.00798383355140686,-0.001616746187210083,0.003674030303955078,0.9675105858092635,0.23927041428699805,-0.04182663768492263,0.07016811199000796
1714155431317016000,4.74001611328125,-0.0037430510856211185,0.0050734709948301315,0.03693467751145363,-0.11470917612314224,-0.45699718594551086,-0.8820405006408691,-0.007895201444625854,0.00042364001274108887,0.0020813941955566406,0.967506600233735,0.2392187357257336,-0.04188262802224942,0.07036601622512514
1714155431327006200,4.750006103515625,0.0027989502996206284,0.007090815342962742,0.03265104815363884,-0.11488213390111923,-0.45696642994880676,-0.8820338845252991,-0.007554404437541962,0.003749847412109375,0.004943490028381348,0.9674916016894121,0.23921775163898104,-0.04192747347216092,0.07054905935579497
1714155431336995000,4.7599951171875,0.0032977603841573,0.009546516463160515,0.034725386649370193,-0.11501065641641617,-0.4569362699985504,-0.8820327520370483,-0.007853120565414429,0.00434526801109314,0.007475316524505615,0.9674778091074668,0.23921511988809527,-0.04194928258064769,0.07073269338151057
1714155431346985200,4.769985107421875,-0.008983034640550613,0.0008915094658732414,0.03221549093723297,-0.11518082767724991,-0.45681697130203247,-0.8820723295211792,-0.008598476648330688,0.0006554126739501953,0.008323609828948975,0.9674751583232345,0.23916527186615405,-0.041997597805849725,0.07090821682397552
1714155431356974000,4.77997412109375,-0.021856488659977913,0.0033485419116914272,0.0279240719974041,-0.11539482325315475,-0.45659029483795166,-0.8821617364883423,-0.005851514637470245,-0.0038589537143707275,0.00922173261642456,0.967486795911734,0.23905786491582748,-0.042076903061129496,0.07106465442956966
1714155431366964200,4.789964111328125,-0.02563018910586834,0.0032041985541582108,0.02295660972595215,-0.1155887171626091,-0.456317275762558,-0.8822776079177856,-0.005779698491096497,-0.005215346813201904,0.01303023099899292,0.9675066345704768,0.23892337641974273,-0.04215226693000363,0.07120174341046007
1714155431376954400,4.799954345703125,-0.020733967423439026,0.0037205852568149567,0.018229765817523003,-0.11571274697780609,-0.45608559250831604,-0.8823811411857605,-0.008432768285274506,-0.004974037408828735,0.011989355087280273,0.9675259140917472,0.23880677846948895,-0.04219884962250542,0.0713040642087833
1714155431386943000,4.80994287109375,-0.01847933419048786,0.0015703490935266018,0.017721302807331085,-0.11583548784255981,-0.455933541059494,-0.8824436068534851,-0.00899668037891388,-0.004744619131088257,0.008969545364379883,0.9675348347765053,0.23873353193826177,-0.04224315890278161,0.07140184557081412
1714155431396933400,4.819933349609375,-0.018561892211437225,0.008642107248306274,0.014837364666163921,-0.11592492461204529,-0.45575955510139465,-0.8825217485427856,-0.009593889117240906,-0.001622706651687622,0.00535506010055542,0.9675492262042453,0.238645932657677,-0.042275736527652055,0.07148081045488286
1714155431406922000,4.829921875,-0.013373787514865398,0.015915732830762863,0.008246839977800846,-0.11592377722263336,-0.4556279182434082,-0.8825898766517639,-0.012845151126384735,0.0005650222301483154,0.0027376413345336914,0.9675613039899857,0.23857710225545245,-0.04226138755695724,0.07155508114791362
1714155431416912400,4.839912353515625,-0.013918937183916569,0.018203921616077423,0.001264830119907856,-0.11584500968456268,-0.45550012588500977,-0.8826661705970764,-0.01441928744316101,-0.0012412667274475098,0.0004945993423461914,0.9675767119773725,0.23850607536651533,-0.04221089181291263,0.07161338662494549
1714155431426902300,4.84990234375,-0.021566469222307205,0.019109396263957024,0.0012822735588997602,-0.1157541275024414,-0.45538783073425293,-0.882736086845398,-0.012373939156532288,-0.0024827420711517334,0.0012205839157104492,0.9675924283670942,0.23844182617940715,-0.04215992554282529,0.07164615262060585
1714155431436891400,4.859891357421875,-0.027516771107912064,0.025313228368759155,-0.00235933274962008,-0.1156010776758194,-0.45523443818092346,-0.8828352093696594,-0.011245250701904297,-0.0037652552127838135,0.0010603070259094238,0.967616439687622,0.23835172035619856,-0.042081510861846146,0.07166626022051314
1714155431446881300,4.86988134765625,-0.028673116117715836,0.023925721645355225,-0.011367341503500938,-0.11540628224611282,-0.4550822079181671,-0.8829391598701477,-0.010493986308574677,-0.0044209957122802734,0.0009506940841674805,0.9676445003372859,0.23825869690880289,-0.04199058722962541,0.07164977237762389
1714155431456870400,4.879870361328125,-0.021628255024552345,0.024356355890631676,-0.021709196269512177,-0.11519463360309601,-0.45496857166290283,-0.8830254077911377,-0.011346518993377686,-0.0032834112644195557,0.0015861988067626953,0.9676706874745542,0.2381844718091394,-0.041898231715705905,0.07159839745428595
1714155431466860300,4.8898603515625,-0.01842745579779148,0.02866455167531967,-0.024995336309075356,-0.1149309054017067,-0.4548857808113098,-0.8831023573875427,-0.011976450681686401,-0.0010926425457000732,0.0004119873046875,0.9676960803858194,0.23812373176921853,-0.04178396208507051,0.07152279763482643
1714155431476850200,4.89985009765625,-0.016471097245812416,0.02842033840715885,-0.027035849168896675,-0.11461643874645233,-0.45479199290275574,-0.8831915855407715,-0.012077301740646362,0.0002784132957458496,-0.0013909339904785156,0.9677254725726292,0.2380541791752149,-0.04164646193265656,0.07143700787455803
1714155431486839300,4.90983935546875,-0.01610714942216873,0.03117804229259491,-0.03059742972254753,-0.11431136727333069,-0.4546818733215332,-0.883287787437439,-0.012367114424705505,-0.0038752853870391846,-0.0015999078750610352,0.9677574806727399,0.23797572295847655,-0.041516988853500164,0.07134050096844334
1714155431496829200,4.9198291015625,-0.021483005955815315,0.03317567706108093,-0.03758476302027702,-0.1139787882566452,-0.4545491635799408,-0.8833990693092346,-0.012852281332015991,-0.004221618175506592,0.0005408525466918945,0.9677953252791066,0.23788255043674628,-0.04138058639390857,0.07121773155717462
1714155431506818300,4.929818359375,-0.02301107719540596,0.03358900174498558,-0.03924550861120224,-0.11359317600727081,-0.45440512895584106,-0.8835228681564331,-0.01364988088607788,-0.0027329623699188232,0.0013817548751831055,0.9678380120529388,0.23777983557377538,-0.04122287805735565,0.07107213571592785
1714155431516808200,4.93980810546875,-0.022845692932605743,0.03039187751710415,-0.041738495230674744,-0.11322201788425446,-0.4542734920978546,-0.8836381435394287,-0.012388348579406738,-0.0019185543060302734,0.0032365918159484863,0.9678789427975619,0.2376843770073502,-0.04107372402300098,0.07092016352176769
1714155431526798300,4.94979833984375,-0.013083130121231079,0.023459136486053467,-0.04294564202427864,-0.1129019558429718,-0.45419639348983765,-0.883718729019165,-0.010297521948814392,-0.0001493692398071289,0.0044921040534973145,0.9679115097536659,0.23762077373408325,-0.040951071670134016,0.07075965627573898
1714155431536787200,4.959787109375,-0.018651800230145454,0.02720087766647339,-0.040561314672231674,-0.11257115006446838,-0.45413729548454285,-0.8837913274765015,-0.01073513925075531,0.001897275447845459,0.007830023765563965,0.9679419673435894,0.23756656228178663,-0.04082250133406548,0.07059816151760454
1714155431546777300,4.96977734375,0.453031450510025,0.3627868592739105,0.14075541496276855,-0.1118166446685791,-0.45626476407051086,-0.882790744304657,-0.012756124138832092,0.003933161497116089,0.009743928909301758,0.9676534197268806,0.23871275092890745,-0.040259732344964355,0.07100942428760715
1714155431556766200,4.97976611328125,0.19284968078136444,0.24707332253456116,0.14791825413703918,-0.10955348610877991,-0.45889317989349365,-0.881711483001709,-0.04684911668300629,0.021805107593536377,0.026013851165771484,0.9672843221513212,0.24009683939066429,-0.038700963446310445,0.07222880304546622
1714155431566756400,4.98975634765625,0.2910483181476593,0.13196030259132385,0.15711021423339844,-0.10868644714355469,-0.46077725291252136,-0.8808357119560242,-0.1247730404138565,0.032447755336761475,0.048041582107543945,0.9669832339822493,0.2411279276433661,-0.037940178116075314,0.07322132381559764
1714155431576746200,4.999746337890625,0.1654440462589264,0.045241665095090866,0.054931655526161194,-0.10855762660503387,-0.4627750813961029,-0.8798036575317383,0.022742189466953278,-0.011132419109344482,0.05683618783950806,0.966661984922778,0.24224515016018977,-0.037622592772532756,0.07393536592830946
1714155431586735400,5.0097353515625,0.059768013656139374,0.01980075240135193,-0.07087668031454086,-0.10823770612478256,-0.46372535824775696,-0.8793426156044006,0.058402493596076965,-0.0022933781147003174,0.045693933963775635,0.9665431583911064,0.24275114960954366,-0.037424356001902394,0.07393002828603125
1714155431596725200,5.019725341796875,-0.07971477508544922,-0.09183336794376373,-0.1055947095155716,-0.10811547189950943,-0.4637787938117981,-0.8793294429779053,0.010733872652053833,-0.010876387357711792,0.05375272035598755,0.9665762936941217,0.24275613998064285,-0.037479704992212134,0.073451247226401
1714155431606714400,5.02971435546875,-0.320455938577652,-0.2387343943119049,-0.187552347779274,-0.10896990448236465,-0.46224281191825867,-0.880032479763031,0.022559374570846558,-0.02446684241294861,0.03905963897705078,0.9668267742460619,0.24191793443594706,-0.03820297980564149,0.0725423274598667
1714155431616704300,5.039704345703125,-0.6881159543991089,-0.38895079493522644,-0.3630687892436981,-0.11049626022577286,-0.4580900967121124,-0.8820114135742188,0.05361148715019226,-0.03756120800971985,0.03153228759765625,0.967471700122725,0.2396403156730658,-0.03958309607124796,0.07074188093068073
1714155431626694100,5.049694091796875,-0.6352213025093079,-0.40826377272605896,-0.2766503393650055,-0.11255902796983719,-0.4521070420742035,-0.8848331570625305,0.07264202833175659,-0.09376093745231628,0.025336146354675293,0.9683711480320134,0.23636186170521528,-0.04143051382003498,0.06836721243126845
