time,seconds_elapsed,rotationRateX,rotationRateY,rotationRateZ,gravityX,gravityY,gravityZ,accelerationX,accelerationY,accelerationZ,quaternionW,quaternionX,quaternionY,quaternionZ
1715693960196018700,0.042018798828125,-0.030554886907339096,0.011504087597131729,0.02206614799797535,-0.09186002612113953,-0.245093435049057,-0.965137779712677,0.008424945175647736,0.010321661829948425,-0.009151160717010498,0.9912460785852886,0.1236289580277789,-0.04633563334993912,0
1715693960206007800,0.0520078125,-0.03703393042087555,0.01202340330928564,0.02704606018960476,-0.09177341312170029,-0.24477219581604004,-0.9652275443077087,0.008307822048664093,0.013082683086395264,-0.0031409859657287598,0.9912687351280034,0.12346969983268705,-0.04627593203603586,0.00012005407457493789
1715693960215996700,0.06199658203125,-0.026780229061841965,0.006477370858192444,0.03545605391263962,-0.09171909838914871,-0.2444825917482376,-0.9653061032295227,0.010801717638969421,0.011969119310379028,0.004353344440460205,0.9912885223780985,0.12332834126194889,-0.04622846702677475,0.00027406703660493026
1715693960225986800,0.07198681640625,-0.00977296195924282,0.008600975386798382,0.028449678793549538,-0.09170746803283691,-0.24433869123458862,-0.9653436541557312,0.01538299024105072,0.012923851609230042,0.0030329227447509766,0.9912979131135816,0.12326189418658634,-0.04620266046353273,0.000431063855425462
1715693960235975700,0.0819755859375,0.00801908504217863,0.00495031476020813,0.022181395441293716,-0.09167221188545227,-0.24428105354309082,-0.9653615951538086,0.01768232136964798,0.017886340618133545,0.007475852966308594,0.9913024246149065,0.12323800049615406,-0.046169325524140575,0.0005545411863459027
1715693960245965800,0.0919658203125,0.018647760152816772,-0.004388592205941677,0.025495368987321854,-0.09167575091123581,-0.2442801296710968,-0.965361475944519,0.01728913187980652,0.021684855222702026,0.007689356803894043,0.9913023226302352,0.12324315466527674,-0.046156115384763406,0.000675163698170056
1715693960255954700,0.10195458984375,0.0209742970764637,-0.0038844558876007795,0.030057629570364952,-0.09173937886953354,-0.24430684745311737,-0.9653486609458923,0.013110816478729248,0.0265791118144989,0.002808988094329834,0.9912989607727977,0.12326370141337538,-0.04617062128740467,0.0008177636650574249
1715693960265943800,0.11194384765625,0.022114183753728867,0.004652572795748711,0.03569320961833,-0.09176801890134811,-0.2443815916776657,-0.9653270244598389,0.01310894638299942,0.02369368076324463,0.0009715557098388672,0.9912938584919624,0.12326395243268014,-0.046286989874019295,0
1715693960275933700,0.12193359375,0.026023969054222107,0.013029013760387897,0.03971804678440094,-0.09171781688928604,-0.24445076286792755,-0.9653142690658569,0.014386266469955444,0.011113330721855164,0.003613889217376709,0.9912906546455937,0.12330833766440305,-0.046237540315248266,0.00019517709920235937
1715693960285927200,0.13192724609375,0.02741515263915062,0.02011328935623169,0.032180700451135635,-0.09159225970506668,-0.24452264606952667,-0.9653080105781555,0.013268895447254181,0.0014196038246154785,-0.0016567111015319824,0.9912891269814729,0.1233356864191636,-0.04619855940739481,0
1715693960295916300,0.141916259765625,0.04389612376689911,0.018341220915317535,0.026087921112775803,-0.09140802174806595,-0.24473989009857178,-0.9652704000473022,0.009392030537128448,0.0042766183614730835,-0.012940049171447754,0.9912796017077432,0.1234540178016291,-0.04608579468092966,0.00016284249705855736
1715693960305906200,0.15190625,0.04863160103559494,0.019475195556879044,0.021281182765960693,-0.09120569378137589,-0.2450372278690338,-0.9652141332626343,0.003955930471420288,0.01272214949131012,-0.023387551307678223,0.9912654016800229,0.12361232739863899,-0.04596666689726093,0.00030483309100343137
1715693960315895300,0.161895263671875,0.04550211876630783,0.03706111013889313,0.022005295380949974,-0.09088949114084244,-0.24528872966766357,-0.9651800394058228,0.0026784315705299377,0.013889193534851074,-0.02773982286453247,0.9912567487888271,0.12374663274265586,-0.045790190267790916,0.0004437410170836098
1715693960325884400,0.171884521484375,0.035691939294338226,0.06059493497014046,0.023195728659629822,-0.09038151055574417,-0.24545542895793915,-0.9651854038238525,0.006793856620788574,0.003252655267715454,-0.02160048484802246,0.9912580453032553,0.12383748511353856,-0.045514671045039264,0.0005973301623890537
1715693960335874300,0.181874267578125,0.028721913695335388,0.06705442816019058,0.0203607939183712,-0.08975069969892502,-0.24546007812023163,-0.9652430415153503,0.013029493391513824,-0.011131733655929565,-0.019940674304962158,0.991272389437029,0.12384501643040649,-0.04517613774990838,0.0007548957012556423
1715693960345863400,0.191863525390625,0.03848782926797867,0.07330460101366043,0.01111815869808197,-0.08905038237571716,-0.2455206662416458,-0.9652925133705139,0.012420736253261566,-0.01032346487045288,-0.027093350887298584,0.9912847829918761,0.12387946095958785,-0.04480650419637027,0.0008813723994022804
1715693960355853300,0.201853271484375,0.04254249483346939,0.0743861123919487,0.003257040400058031,-0.08829652518033981,-0.2458016574382782,-0.9652902483940125,0.006692506372928619,0.0036293864250183105,-0.03393155336380005,0.9912841754276902,0.12402455581651499,-0.04441600071095983,0.0009625731182387742
1715693960365842400,0.211842529296875,0.04713703319430351,0.07776673138141632,0.007230210117995739,-0.08751293271780014,-0.24620321393013,-0.9652592539787292,0.0043525248765945435,0.013644009828567505,-0.03802138566970825,0.9912762183276418,0.12423122575653284,-0.04401097902322444,0.0010418544752580639
1715693960375831300,0.221831298828125,0.044987063854932785,0.09189452975988388,0.01103213895112276,-0.08668313175439835,-0.2465468943119049,-0.9652464389801025,0.006299823522567749,0.01000511646270752,-0.03675246238708496,0.991272852778953,0.12440965984200977,-0.04357779261845444,0.0011581248667252297
1715693960385821400,0.231821533203125,0.05517812818288803,0.10553470999002457,0.018142178654670715,-0.08575013279914856,-0.24686352908611298,-0.9652488231658936,0.008601687848567963,-0.0003899037837982178,-0.032126665115356445,0.9912732588337193,0.12457526675613922,-0.04308812297053515,0.0013081547545419903
1715693960395810300,0.241810302734375,0.06943535804748535,0.10742981731891632,0.020606668666005135,-0.08477342873811722,-0.2473035603761673,-0.9652224779129028,0.004863142967224121,-0.0016741156578063965,-0.029070734977722168,0.9912663479286237,0.12480558376593523,-0.04257149242940527,0.001498539251778619
1715693960405799400,0.25179931640625,0.09289322793483734,0.1044398844242096,0.02535981312394142,-0.08379524946212769,-0.24801181256771088,-0.9651261568069458,-0.0009062886238098145,0.006648272275924683,-0.0225752592086792,0.991241797030521,0.12517338794881733,-0.04205406180773576,0.0016926961252021755
1715693960415789300,0.261789306640625,0.1161855012178421,0.1093536838889122,0.0367104709148407,-0.08282679319381714,-0.24900312721729279,-0.9649544954299927,-0.0033548548817634583,0.012690246105194092,-0.016261935234069824,0.9911980639831774,0.1256881326209486,-0.041536091025616985,0.0019325896106983653
1715693960425778400,0.2717783203125,0.1264147013425827,0.1156185045838356,0.044795162975788116,-0.08182339370250702,-0.2501392662525177,-0.9647462368011475,-0.0014285743236541748,0.013475418090820312,-0.009008646011352539,0.9911448900106585,0.12627929950564704,-0.040992974431445825,0.0022309197556091287
1715693960435767300,0.281767333984375,0.12545809149742126,0.11713676899671555,0.05714024603366852,-0.08082772046327591,-0.2512398958206177,-0.9645441174507141,0.00018502026796340942,0.013538479804992676,-0.004633069038391113,0.9910930453763153,0.1268542623720702,-0.0404465757237677,0.0025820215131270308
1715693960445757400,0.29175732421875,0.12070201337337494,0.11362166702747345,0.06782098859548569,-0.07986848801374435,-0.25225311517715454,-0.9643595814704895,-0.0014608576893806458,0.013330996036529541,-0.005901038646697998,0.9910453916510065,0.127386679927691,-0.03991045731086705,0.0029922219993544497
1715693960455746300,0.301746337890625,0.10387402772903442,0.11182669550180435,0.06863325089216232,-0.07894088327884674,-0.25318342447280884,-0.9641921520233154,-0.0008473321795463562,0.01653483510017395,-0.0034592151641845703,0.9910016593913138,0.1278771978980862,-0.03938719242412263,0.003422573485440339
1715693960465736400,0.311736328125,0.0953080803155899,0.10452244430780411,0.06567887216806412,-0.07805969566106796,-0.2540298402309418,-0.9640412330627441,-0.000004276633262634277,0.020524591207504272,0.000006258487701416016,0.9909620472664069,0.12832435549972765,-0.0388874914523814,0.0038482079805392533
1715693960475725300,0.321725341796875,0.07269863784313202,0.10194849967956543,0.067910335958004,-0.07725067436695099,-0.25472158193588257,-0.9639238715171814,0.0004989728331565857,0.02330678701400757,0.00011777877807617188,0.9909307546244539,0.12869153807944025,-0.03842587148404175,0.004257926578412896
1715693960485714400,0.33171435546875,0.04379444569349289,0.09894445538520813,0.07998264580965042,-0.07651320099830627,-0.25509732961654663,-0.9638833403587341,-0.0017643943428993225,0.02594083547592163,0.005829751491546631,0.9909185501337712,0.12889808729375116,-0.03799493714074195,0.004706921539803399
1715693962153940000,1.99993994140625,0.6992661356925964,-0.008299444802105427,3.468315362930298,0.09950806945562363,-0.15232639014720917,-0.9833080768585205,-0.14684084057807922,-0.04040737450122833,-0.11202877759933472,0.9442337151383897,0.0883932254858919,0.0230778699125225,-0.3163492743092067
1715693962163929000,2.00992919921875,0.7992658615112305,0.040835876017808914,3.348611354827881,0.09429368376731873,-0.1629396378993988,-0.9821198582649231,-0.13675889372825623,-0.05632917582988739,-0.1001707911491394,0.9491462623146388,0.09231032662848779,0.020466672624761872,-0.3003020065895756
1715693962173918000,2.01991796875,0.9232732653617859,0.05586782097816467,3.2386550903320312,0.08926750719547272,-0.1744442880153656,-0.9806123375892639,-0.12022759020328522,-0.0318087637424469,-0.08957809209823608,0.9535447004342721,0.09681632638778292,0.01790096009869572,-0.2847080665296064
1715693962183908000,2.029908203125,0.9639480113983154,0.09736093878746033,3.155543565750122,0.08427374809980392,-0.18650217354297638,-0.9788334369659424,-0.11897222697734833,-0.0069335103034973145,-0.08278155326843262,0.9574906464272228,0.10171930792577341,0.015377558053593858,-0.26949658645483504
1715693962193897000,2.03989697265625,0.9662550687789917,0.1152786836028099,3.124471426010132,0.07930751144886017,-0.19848880171775818,-0.9768891930580139,-0.13123315572738647,0.009218752384185791,-0.07639449834823608,0.9610845380051941,0.10670646322342274,0.013004969116850042,-0.2544820799268705
1715693962203886000,2.049885986328125,0.8842503428459167,0.16103339195251465,3.1119842529296875,0.07418368011713028,-0.21002183854579926,-0.9748782515525818,-0.14753267168998718,0.01626572012901306,-0.05394560098648071,0.9644119197639623,0.11155764662080289,0.010759324517667278,-0.23947634965896553
1715693962213876000,2.0598759765625,0.7171628475189209,0.25728297233581543,2.9760382175445557,0.06970547139644623,-0.21994458138942719,-0.9730187654495239,-0.15980860590934753,0.01700267195701599,-0.028842806816101074,0.9674865519925517,0.11578934392254257,0.009134690495070784,-0.22467564109634758
1715693962223865000,2.069864990234375,0.805649995803833,0.3365554213523865,2.799569845199585,0.06613963842391968,-0.2291574627161026,-0.9711397290229797,-0.17435497045516968,0.1018686443567276,0.014596819877624512,0.9701688743761654,0.11985393868891012,0.008072291451563934,-0.21057575434434428
1715693962233855000,2.07985498046875,0.9777165651321411,0.37261462211608887,2.7202937602996826,0.06315374374389648,-0.23960700631141663,-0.9688137769699097,-0.19036626815795898,0.13943305611610413,0.07239043712615967,0.9724097521661197,0.12466401616056816,0.00721161252816474,-0.19704347653083004
1715693962243844000,2.089843994140625,1.069573998451233,0.40903440117836,2.713632345199585,0.060293540358543396,-0.25119900703430176,-0.9660557508468628,-0.1995605081319809,0.04825711250305176,0.05686086416244507,0.9743255222564365,0.13011885352399644,0.0064186625215279375,-0.18362368386307604
1715693962253833000,2.0998330078125,1.1671534776687622,0.4460853636264801,2.693298816680908,0.05746889486908913,-0.26356175541877747,-0.9629291296005249,-0.18422365188598633,-0.026889294385910034,0.029396414756774902,0.9759609029923126,0.1360245985891494,0.0057218462539260564,-0.1701909077389081
1715693962263823000,2.109822998046875,1.2661529779434204,0.48034507036209106,2.6412081718444824,0.0547114796936512,-0.2767537534236908,-0.9593821167945862,-0.1690303087234497,-0.04575604200363159,0.05139261484146118,0.9772813370188935,0.14241711669527102,0.005129368000919801,-0.15688356468357506
1715693962273812000,2.11981201171875,1.3232365846633911,0.49666813015937805,2.580017566680908,0.05201372876763344,-0.2905373275279999,-0.9554489254951477,-0.17918047308921814,-0.04025796055793762,0.050633251667022705,0.9782865289363756,0.14917729473957195,0.004655354498356731,-0.1438060224239232
1715693962283801000,2.129801025390625,1.340354323387146,0.494547963142395,2.5178630352020264,0.04918307438492775,-0.30452385544776917,-0.9512340426445007,-0.18912142515182495,-0.044887155294418335,0.03354001045227051,0.9790077722386432,0.15609309466827026,0.004232250833213422,-0.1309995823538076
1715693962293791000,2.139791015625,1.2885770797729492,0.47229140996932983,2.4401605129241943,0.04604264348745346,-0.3182510733604431,-0.946887731552124,-0.17804642021656036,-0.07069548964500427,0.012790441513061523,0.9794894405769246,0.16291643051736127,0.0037920220996990467,-0.11850907580315434
1715693962303780000,2.149780029296875,1.1558278799057007,0.48219117522239685,2.331477165222168,0.04281611740589142,-0.3308872580528259,-0.9426984786987305,-0.15330500900745392,-0.10559043288230896,0.009196281433105469,0.9798044948727733,0.16922994339895095,0.003462814216715987,-0.10645384703023514
1715693962313769000,2.15976904296875,0.9787511825561523,0.4754304587841034,2.2008368968963623,0.03970841318368912,-0.34188973903656006,-0.9389007687568665,-0.12807205319404602,-0.12322869896888733,0.009152233600616455,0.9800156246269411,0.17475288133586198,0.0033239595721468312,-0.09497224883155753
1715693962323759000,2.169759033203125,0.7696089744567871,0.4309373199939728,2.0953729152679443,0.03653935343027115,-0.350886732339859,-0.93570476770401,-0.11725835502147675,-0.12126600742340088,0.02249675989151001,0.9801968153387042,0.17926786046682447,0.0032645405065060418,-0.08406294953921284
1715693962333748000,2.179748046875,0.5604531168937683,0.3946205675601959,2.019108772277832,0.0331406444311142,-0.35780417919158936,-0.9332084059715271,-0.1163010448217392,-0.10031047463417053,0.0522269606590271,0.9803992359143134,0.18271755465011208,0.003178884499830656,-0.07363138341360176
1715693962343738000,2.189738037109375,0.3860275149345398,0.27623215317726135,1.9770427942276,0.029159151017665863,-0.36280837655067444,-0.9314074516296387,-0.10853537917137146,-0.06939685344696045,0.10877561569213867,0.9806457292416463,0.18517032473112463,0.0028689502173279285,-0.06354231792669757
1715693962353727000,2.19972705078125,0.2359546720981598,0.10376663506031036,1.947385311126709,0.023784322664141655,-0.36619335412979126,-0.9302347898483276,-0.10010877251625061,-0.05539175868034363,0.14417827129364014,0.9809318586939676,0.18675933706473907,0.0018881965450392585,-0.05375885902808858
1715693962363715800,2.2097158203125,0.24266940355300903,-0.017938222736120224,1.903273582458496,0.016985485330224037,-0.3686297535896301,-0.9294211268424988,-0.09929138422012329,-0.01430484652519226,0.16071385145187378,0.9811983578277279,0.18785474904441812,0.0001784536068705489,-0.04427699544162894
1715693962373706000,2.2197060546875,0.4522695243358612,-0.039070673286914825,1.7989037036895752,0.009877387434244156,-0.3720514178276062,-0.9281595945358276,-0.10966986417770386,0.047802120447158813,0.19944560527801514,0.9812434348940068,0.18951801092915374,-0.0017713529914586412,-0.035230541193735865
1715693962383694800,2.22969482421875,0.6338301301002502,-0.06649430841207504,1.6704089641571045,0.0029147211462259293,-0.3772236406803131,-0.9261175990104675,-0.11779814958572388,0.05549207329750061,0.1869971752166748,0.9809902255793362,0.19216413476535277,-0.003759843150957315,-0.026777785302733392
1715693962393684000,2.23968408203125,0.7678281664848328,-0.075229212641716,1.5705041885375977,-0.003899445291608572,-0.3837275207042694,-0.9234381318092346,-0.1402045488357544,0.02773994207382202,0.0863105058670044,0.9804907934749918,0.19557039214863003,-0.005757336679006686,-0.018894950889580597
1715693962403673900,2.249673828125,0.7898363471031189,-0.09358292073011398,1.497130274772644,-0.010587154887616634,-0.39087408781051636,-0.9203832745552063,-0.1675134301185608,0.01947513222694397,0.0777929425239563,0.9798269795042962,0.19937048270707752,-0.007730807619242969,-0.011442397934333048
1715693962413663000,2.2596630859375,0.6915342807769775,-0.11884832382202148,1.4224600791931152,-0.017310889437794685,-0.3975381851196289,-0.917422354221344,-0.18473073840141296,0.01892182230949402,0.0707274079322815,0.9791283172404721,0.20296265419205894,-0.009746148670600058,-0.004371670251669568
1715693962423652900,2.26965283203125,0.49054577946662903,-0.12563538551330566,1.3435810804367065,-0.023970460519194603,-0.40269485116004944,-0.9150204062461853,-0.19275012612342834,-0.0034636259078979492,0.0449795126914978,0.9785218204225861,0.2057945899041972,-0.011764225358904201,0.002301706767043943
1715693962433642000,2.27964208984375,0.26367801427841187,-0.10734826326370239,1.2610052824020386,-0.03030414693057537,-0.4057878255844116,-0.9134647846221924,-0.19219951331615448,-0.04565870761871338,0.05201458930969238,0.978089422712046,0.2075588431868165,-0.013672601210360263,0.008571287970007002
1715693962443630800,2.289630859375,0.05311284586787224,-0.0670812726020813,1.1668516397476196,-0.03606916218996048,-0.40682822465896606,-0.9127923250198364,-0.18471024930477142,-0.09330910444259644,0.061580777168273926,0.9778485826114085,0.20824892513671306,-0.015369837671068587,0.014430840003044898
1715693962453621000,2.29962109375,-0.16056428849697113,-0.03837532177567482,1.0633271932601929,-0.04105330631136894,-0.40591058135032654,-0.9129902720451355,-0.18183183670043945,-0.12340158224105835,0.063792884349823,0.9778046528133331,0.20790240430577903,-0.016776772558668676,0.01982780007087842
1715693962463609900,2.30960986328125,-0.27773454785346985,-0.030268659815192223,0.9327755570411682,-0.04540031775832176,-0.40339452028274536,-0.9138991832733154,-0.18796759843826294,-0.12788599729537964,0.05209803581237793,0.9779273503486108,0.20670353595906113,-0.018001893174382833,0.0246518006441917
1715693962473599000,2.319598876953125,-0.21522746980190277,0.03058803454041481,0.7694367170333862,-0.04884766787290573,-0.40064147114753723,-0.9149318933486938,-0.20026732981204987,-0.09136295318603516,0.013076424598693848,0.9780783767619878,0.20536757710844872,-0.01892682480490389,0.028786998505172856
1715693962483588900,2.3295888671875,-0.04179006814956665,0.13128773868083954,0.6198721528053284,-0.050875745713710785,-0.3990948498249054,-0.9154971241950989,-0.2201508730649948,-0.030195951461791992,-0.008224189281463623,0.9781151225745892,0.204647124690307,-0.019261106905820655,0.03224229818882879
1715693962493578000,2.339577880859375,0.13268639147281647,0.1783769577741623,0.5233011245727539,-0.051679398864507675,-0.39925408363342285,-0.9153826832771301,-0.24064849317073822,0.0068743228912353516,-0.03946655988693237,0.9779840491739665,0.20480653743640195,-0.01905116663563014,0.035194005987998545
1715693962503568000,2.34956787109375,0.2192823737859726,0.17207592725753784,0.43686985969543457,-0.051995616406202316,-0.40063509345054626,-0.9147611856460571,-0.24713768064975739,0.007110893726348877,-0.06978166103363037,0.9777299710920023,0.20560031655165667,-0.01865283102320628,0.037744964071540654
1715693962513557000,2.359556884765625,0.22464784979820251,0.1880948394536972,0.32843872904777527,-0.05191001668572426,-0.40250223875045776,-0.9139460325241089,-0.23538246750831604,0.0021573901176452637,-0.08837330341339111,0.9774390018148365,0.20663523682735216,-0.018134893325586418,0.039825036957967186
1715693962523545900,2.3695458984375,0.179017573595047,0.23543864488601685,0.19758696854114532,-0.05105016753077507,-0.40421465039253235,-0.9132384061813354,-0.21842005848884583,-0.001669168472290039,-0.08551037311553955,0.9771950239233622,0.20755751953251497,-0.017339720797931085,0.041341766440560423
1715693962533536000,2.379535888671875,0.1216389611363411,0.3090742528438568,0.07695136964321136,-0.04911845922470093,-0.40553078055381775,-0.9127607345581055,-0.20420795679092407,-0.02527061104774475,-0.08266156911849976,0.9770320698974904,0.20822989048636406,-0.01612281565277783,0.04229326203000805
1715693962543524900,2.38952490234375,0.07215465605258942,0.36280858516693115,-0.012060796841979027,-0.04614407196640968,-0.40637633204460144,-0.9125398397445679,-0.19302217662334442,-0.05948975682258606,-0.07723671197891235,0.9769537216357547,0.20861556312630714,-0.014478034944299126,0.04279482557891573
1715693962553514000,2.399513916015625,0.07674488425254822,0.3833357095718384,-0.08200179785490036,-0.04251605644822121,-0.4070638120174408,-0.9124097228050232,-0.1861216425895691,-0.07871502637863159,-0.0721331238746643,0.9769132995706473,0.20889477360740205,-0.012574655398551238,0.04295789669186528
1715693962563503900,2.40950390625,0.09818455576896667,0.3804357945919037,-0.12110372632741928,-0.03858759254217148,-0.40790262818336487,-0.9122096300125122,-0.18423651158809662,-0.06832417845726013,-0.06532943248748779,0.976866524349514,0.2092449107292284,-0.010571033188891188,0.042855560024065764
1715693962573493000,2.419492919921875,0.1147179901599884,0.35043659806251526,-0.14274244010448456,-0.03471045941114426,-0.40893039107322693,-0.9119052290916443,-0.18835778534412384,-0.04697173833847046,-0.05071073770523071,0.9768003564264752,0.20969741675252385,-0.008624515503310323,0.04258897950183965
1715693962583483000,2.42948291015625,0.1329699158668518,0.30919143557548523,-0.16268759965896606,-0.031094146892428398,-0.41011208295822144,-0.9115049242973328,-0.18632833659648895,-0.030119270086288452,-0.028787434101104736,0.9767151620862791,0.21023986072724038,-0.006836082877996072,0.042190703368595595
1715693962593472000,2.439471923828125,0.16608339548110962,0.28553029894828796,-0.18855302035808563,-0.02765567973256111,-0.4115104377269745,-0.9109853506088257,-0.1683892458677292,-0.0148354172706604,-0.005030214786529541,0.9766053224588127,0.21090434557561402,-0.005164021737759192,0.04165219267740217
1715693962603461000,2.449461181640625,0.19540442526340485,0.2595469057559967,-0.18879835307598114,-0.024376392364501953,-0.4132254421710968,-0.910302460193634,-0.14232587814331055,-0.006986379623413086,0.013131439685821533,0.9764575328180749,0.21174489969647037,-0.0035887951076793018,0.04101109580839396
1715693962613451000,2.459450927734375,0.2004878669977188,0.22209487855434418,-0.17199620604515076,-0.021432364359498024,-0.4150904417037964,-0.9095276594161987,-0.11263135075569153,-0.017282634973526,0.02969062328338623,0.9762851626689432,0.21267680832643027,-0.0021785830734951106,0.040386461526763395
1715693962623440100,2.469440185546875,0.19945061206817627,0.16767477989196777,-0.1557852029800415,-0.01898764632642269,-0.4169687032699585,-0.9087225198745728,-0.08750344812870026,-0.03414216637611389,0.046906113624572754,0.9761031084998759,0.21362986194272746,-0.0010157389889929591,0.03979947712107623
1715693962633429000,2.479428955078125,0.16904982924461365,0.10800159722566605,-0.1418001502752304,-0.017104024067521095,-0.4186810553073883,-0.9079722762107849,-0.06764329969882965,-0.04111206531524658,0.07201951742172241,0.9759342857282476,0.21450837429535352,-0.00014152435459310886,0.039224080027778385
1715693962643419100,2.489419189453125,0.13039171695709229,0.04141324758529663,-0.12667019665241241,-0.015865003690123558,-0.4200405180454254,-0.9073666930198669,-0.05077013373374939,-0.03836405277252197,0.08711522817611694,0.9758016646002994,0.2152127031018138,0.00039684634220059356,0.03865824566565956
1715693962653408000,2.499407958984375,0.14443854987621307,-0.021298065781593323,-0.11517998576164246,-0.015266642905771732,-0.42129555344581604,-0.9067949056625366,-0.03688789904117584,-0.023345589637756348,0.08867967128753662,0.975678132942827,0.21587537992056605,0.0006009581965839977,0.03807596439293248
1715693962663398100,2.509398193359375,0.18239115178585052,-0.09458106756210327,-0.06557761877775192,-0.015413587912917137,-0.422802209854126,-0.9060909152030945,-0.02403038740158081,0.009243249893188477,0.08605307340621948,0.9755169637211956,0.2166895236850251,0.0004471021470637271,0.03757888075290755
1715693962673387000,2.519386962890625,0.2294449508190155,-0.15025019645690918,-0.03590600937604904,-0.016333267092704773,-0.4246889650821686,-0.905191957950592,-0.011559797450900078,0.04083886742591858,0.07392370700836182,0.9753012559754133,0.21772461736186124,-0.00007003437639975518,0.03719528373220249
1715693962683376000,2.529376220703125,0.24082478880882263,-0.1938440054655075,-0.00795779749751091,-0.017827115952968597,-0.4268627166748047,-0.9041407108306885,0.005681127309799194,0.04998588562011719,0.05654549598693848,0.9750430353847502,0.21892672934198049,-0.0008569258565792048,0.036898271739313704
1715693962693366000,2.539365966796875,0.19408205151557922,-0.20130938291549683,0.021305548027157784,-0.019645046442747116,-0.4288567006587982,-0.9031589031219482,0.021949127316474915,0.03373032808303833,0.04604220390319824,0.9747981777289549,0.22003942639071175,-0.0017888952255987467,0.0367148362376033
1715693962703355100,2.549355224609375,0.1245589628815651,-0.19045193493366241,0.044430576264858246,-0.021572256460785866,-0.43028363585472107,-0.9024359583854675,0.033062130212783813,0.008103430271148682,0.04354923963546753,0.9746147791815487,0.2208492990748056,-0.0027598350374468256,0.03666007748932659
1715693962713343700,2.55934375,0.0985952764749527,-0.16690373420715332,0.05649762600660324,-0.023381058126688004,-0.43126562237739563,-0.9019219875335693,0.036030590534210205,-0.01046106219291687,0.04150944948196411,0.974481172362058,0.22141732684569634,-0.00365570610577734,0.03670946700970579
1715693962723334100,2.569334228515625,0.11138744652271271,-0.1544545292854309,0.07075944542884827,-0.025091053918004036,-0.43217048048973083,-0.90144282579422,0.03302562236785889,-0.022816121578216553,0.02978450059890747,0.9743531081796672,0.22194255264680246,-0.004483021471311202,0.03684503458187072
1715693962733322800,2.57932275390625,0.14310355484485626,-0.17423035204410553,0.08722656965255737,-0.02688639611005783,-0.43329378962516785,-0.9008516073226929,0.026779577136039734,-0.014948427677154541,0.015612959861755371,0.9741935722485678,0.22258873554654812,-0.005333752646214954,0.03705079700755037
1715693962743313200,2.589313232421875,0.18169288337230682,-0.20510359108448029,0.09779252856969833,-0.029016751796007156,-0.4347236156463623,-0.9000963568687439,0.025980249047279358,0.012100905179977417,0.009349286556243896,0.973990046628493,0.22340914006782675,-0.006338881707089752,0.03730540313561692
1715693962753300700,2.59930078125,0.22370637953281403,-0.2183389663696289,0.08823471516370773,-0.03135162964463234,-0.436524361371994,-0.8991460204124451,0.02839142084121704,0.04209986329078674,0.009802818298339844,0.9737371217958036,0.22443603630219594,-0.00744628989354694,0.03753891663511616
1715693962763289600,2.60928955078125,0.2592937648296356,-0.20591264963150024,0.06340440362691879,-0.03359619528055191,-0.4386809170246124,-0.8980146646499634,0.027507945895195007,0.06429126858711243,0.013859391212463379,0.9734411509336669,0.22565469405959696,-0.008522159177699648,0.03767826073021391
1715693962773279700,2.61927978515625,0.25605109333992004,-0.1892993301153183,0.06355459988117218,-0.03563912957906723,-0.44099801778793335,-0.8968002200126648,0.024576514959335327,0.06355655193328857,0.011210620403289795,0.9731258047994233,0.22695721296960766,-0.009503256404767305,0.03776791660387213
1715693962783268600,2.6292685546875,0.2144080400466919,-0.17781497538089752,0.07813873887062073,-0.03753124922513962,-0.4430856704711914,-0.895693302154541,0.019510626792907715,0.036606788635253906,0.005281925201416016,0.9728364385248187,0.22813398982380287,-0.010402974273189494,0.03789541812421171
1715693962793257700,2.6392578125,0.16374273598194122,-0.15217192471027374,0.08553513884544373,-0.039301808923482895,-0.4447847008705139,-0.8947747945785522,0.015147149562835693,0.012503206729888916,0.0001062154769897461,0.9725916849459135,0.2290994830923964,-0.011226347203358994,0.038115547216413415
1715693962803247600,2.64924755859375,0.12252643704414368,-0.12687616050243378,0.06807319074869156,-0.040783658623695374,-0.44607508182525635,-0.8940658569335938,0.015713468194007874,-0.00024452805519104004,-0.00122833251953125,0.9724010500448876,0.2298373575924461,-0.011910899733719463,0.03832996441151704
1715693962813236700,2.65923681640625,0.10502760112285614,-0.11719583719968796,0.035481154918670654,-0.04200495406985283,-0.447068989276886,-0.8935126662254333,0.014172926545143127,-0.0034620165824890137,-0.00782400369644165,0.9722548424820913,0.23040735519413785,-0.012494545857446193,0.038430169611852194
1715693962823226600,2.6692265625,0.09115418791770935,-0.11070571094751358,0.021289037540555,-0.043029624968767166,-0.4478548765182495,-0.8930702209472656,0.009445030242204666,-0.001714855432510376,-0.0132865309715271,0.9721412708648792,0.2308586324386721,-0.01300650320663424,0.038424610676551785
1715693962833215700,2.6792158203125,0.07445190846920013,-0.09649961441755295,0.016202133148908615,-0.04387610778212547,-0.4483620524406433,-0.8927745223045349,0.0046152472496032715,-0.00015479326248168945,-0.012697279453277588,0.9720668305796369,0.23115380015083387,-0.013440877088096895,0.038384069216798544
1715693962843204900,2.689204833984375,0.04084818810224533,-0.06490759551525116,0.02655104547739029,-0.044484060257673264,-0.4484149217605591,-0.8927178978919983,-0.001978963613510132,0.003010869026184082,-0.01752990484237671,0.9720527805932947,0.23119657982726877,-0.013754709182037805,0.03837308796061384
1715693962853194800,2.69919482421875,-0.014012395404279232,-0.030691301450133324,0.05260821059346199,-0.04488470032811165,-0.448055624961853,-0.8928782343864441,-0.01590631902217865,0.002331078052520752,-0.013402283191680908,0.9720892050619945,0.23101211159158197,-0.01393851712677903,0.03849524445762931
1715693962863183600,2.70918359375,-0.08348462730646133,-0.01205077301710844,0.07538483291864395,-0.04520713910460472,-0.44733983278274536,-0.893220841884613,-0.02653968334197998,-0.005937814712524414,0.0004290938377380371,0.9721662987704793,0.23063415550353966,-0.01405265195413219,0.03877159951571718
1715693962873172500,2.71917236328125,-0.12338356673717499,-0.003516673343256116,0.06080934777855873,-0.04546402767300606,-0.44627857208251953,-0.8937385082244873,-0.02506209909915924,-0.011866599321365356,0.006607770919799805,0.972287164412887,0.2300674017782643,-0.014133275373531054,0.03907729743915661
1715693962883162600,2.72916259765625,-0.10041572153568268,-0.009510650299489498,0.03742040693759918,-0.04563575237989426,-0.44521573185920715,-0.8942596316337585,-0.01410241425037384,-0.006642818450927734,0.01077580451965332,0.9724127927854089,0.22949662614982852,-0.014194010117386871,0.03928353681338326
1715693962893151500,2.7391513671875,-0.040173426270484924,-0.007708755321800709,0.018854709342122078,-0.04575115069746971,-0.4445711076259613,-0.8945744037628174,-0.0026649795472621918,0.003943055868148804,0.008313477039337158,0.9724898993449249,0.22915040997087982,-0.01424366706235157,0.03937917151685394
1715693962903141600,2.7491416015625,0.021329190582036972,-0.01271390076726675,0.016729172319173813,-0.0458424910902977,-0.44449108839035034,-0.8946095108985901,0.002782180905342102,0.018892943859100342,-0.0006389021873474121,0.9724966046144288,0.22910995414083674,-0.014278513945063617,0.03943712914279712
1715693962913130500,2.759130615234375,0.05946059897542,-0.02562144212424755,0.03662511706352234,-0.04608253389596939,-0.4448474645614624,-0.8944200277328491,0.002350836992263794,0.03392821550369263,-0.01570570468902588,0.972443543257968,0.22931095847668687,-0.01436916786539133,0.039544826185638204
1715693962923119600,2.76911962890625,0.06365092098712921,-0.011801768094301224,0.05611738935112953,-0.04645304009318352,-0.44533398747444153,-0.894158661365509,0.004796534776687622,0.04045724868774414,-0.02231466770172119,0.9723677962028228,0.22958744186643942,-0.014500379310363576,0.03975312092956601
1715693962933109500,2.779109619140625,0.04072696343064308,-0.011981264688074589,0.06447279453277588,-0.046964891254901886,-0.44570809602737427,-0.893945574760437,0.007398858666419983,0.03762701153755188,-0.02425205707550049,0.9723006115083201,0.22980775679539234,-0.014684034729796375,0.04005586961218632
1715693962943098600,2.7890986328125,0.03399214893579483,0.02216978184878826,0.06973439455032349,-0.04746605455875397,-0.44608834385871887,-0.8937293887138367,0.0071523189544677734,0.033994197845458984,-0.02982407808303833,0.9722301233799233,0.23003223073681095,-0.014848947594445647,0.0404136089877436
1715693962953087500,2.79908740234375,0.032036855816841125,0.05181635543704033,0.07454247772693634,-0.047657351940870285,-0.44651496410369873,-0.8935061097145081,0.0015300214290618896,0.03287968039512634,-0.025851190090179443,0.972155147617585,0.23027540688665527,-0.014838435382582504,0.04083551396753926
1715693962963077600,2.80907763671875,0.03354053199291229,0.045708928257226944,0.07352780550718307,-0.04765073582530022,-0.44688090682029724,-0.8933234810829163,-0.0011010915040969849,0.034267961978912354,-0.02206653356552124,0.972090191049356,0.23048074827731843,-0.014726768752992864,0.041259931088688084
1715693962973066500,2.81906640625,0.040463417768478394,0.03503284975886345,0.07671400904655457,-0.047641903162002563,-0.4471445381641388,-0.8931920528411865,0.0003701746463775635,0.035981178283691406,-0.022976160049438477,0.9720386930279603,0.23063021117715615,-0.0146177200504011,0.041676944568366625
1715693962983056600,2.829056640625,0.046643707901239395,0.0472722053527832,0.08251584321260452,-0.04759766906499863,-0.4472805857658386,-0.8931262493133545,0.0017907805740833282,0.029616981744766235,-0.017747104167938232,0.9720027833349753,0.23070968660464747,-0.014488133620456978,0.042114954284362016
1715693962993045500,2.83904541015625,0.027753908187150955,0.06988270580768585,0.08018211275339127,-0.04740471765398979,-0.44714754819869995,-0.8932031393051147,0.00397820770740509,0.020313411951065063,-0.013825058937072754,0.9720023130899903,0.2306392558121423,-0.014281633051102582,0.0425798219143112
1715693963003034600,2.84903466796875,0.006876908242702484,0.078203484416008,0.07630468904972076,-0.047021958976984024,-0.44673722982406616,-0.8934286832809448,-0.0004023611545562744,0.011129289865493774,-0.010913968086242676,0.9720399477184919,0.2304129042832498,-0.013984271539859094,0.04304319960396724
1715693963013024500,2.8590244140625,0.0025905505754053593,0.06068388372659683,0.07454061508178711,-0.04662194848060608,-0.44620653986930847,-0.8937147855758667,-0.006112426519393921,0.002602994441986084,-0.007499814033508301,0.9720931163451934,0.23012041617314444,-0.013682022171323055,0.04350232864557635
1715693963023013600,2.869013671875,0.7212189435958862,-0.27677643299102783,0.25065046548843384,-0.0487792082130909,-0.44913285970687866,-0.8921324014663696,-0.003802582621574402,-0.002176344394683838,-0.006366074085235596,0.971660822614787,0.2317777129081818,-0.014590306263592964,0.04406279732403928
1715693963033002500,2.87900244140625,0.525176465511322,-0.26199883222579956,0.3497174084186554,-0.05218413099646568,-0.4544224143028259,-0.889256477355957,-0.0009011924266815186,-0.00224265456199646,-0.007517814636230469,0.9708623119187171,0.23477331044303817,-0.015913723971194796,0.04532896556489052
1715693963042992600,2.88899267578125,0.4241856038570404,-0.5100371241569519,0.42563724517822266,-0.05747290328145027,-0.45761188864707947,-0.8872926235198975,0.0023886747658252716,-0.004408985376358032,0.015619099140167236,0.9702855630557403,0.2366909896003577,-0.018195016679593945,0.04682091908789293
1715693963052981500,2.8989814453125,0.5626553297042847,-0.6554238796234131,0.3625056743621826,-0.06445048749446869,-0.461282342672348,-0.884909451007843,-0.02708698809146881,0.028039515018463135,-0.017892003059387207,0.9696077667094315,0.23893153851503224,-0.02137724770886118,0.048121310197737854
1715693963062971600,2.9089716796875,0.3707273006439209,-0.5352562069892883,0.176316499710083,-0.07111893594264984,-0.4653853476047516,-0.8822463750839233,-0.01637496054172516,0.0500563383102417,0.05442655086517334,0.9688880136307652,0.24140054119201682,-0.02454802695642809,0.048778594958965915
1715693963072960500,2.91896044921875,0.08319112658500671,-0.27536284923553467,-0.0691145583987236,-0.07500475645065308,-0.46730563044548035,-0.8809084892272949,0.03894822299480438,0.01688140630722046,0.027316570281982422,0.9685527091102828,0.2425709852135252,-0.02655317272771271,0.04858053917567062
1715693963082949600,2.92894970703125,-0.14381374418735504,0.03797244653105736,-0.27002257108688354,-0.07519187033176422,-0.46716994047164917,-0.8809645175933838,0.02830161154270172,-0.019738078117370605,0.01783585548400879,0.968616702344255,0.2424746909413361,-0.02690308757722465,0.04758085907551779
1715693963092939500,2.938939453125,-0.3053041100502014,0.1578647643327713,-0.3515946567058563,-0.07274668663740158,-0.4653734266757965,-0.88211989402771,-0.0011821463704109192,-0.04045543074607849,0.047052204608917236,0.9689843578844629,0.24137483671720747,-0.0260432231004889,0.04614344767609041
1715693963102928600,2.9489287109375,-0.3424440920352936,0.0974339097738266,-0.35299941897392273,-0.06989046931266785,-0.462693452835083,-0.8837590217590332,-0.0060525089502334595,-0.05248904228210449,0.03303581476211548,0.9694817408901077,0.23977930870388736,-0.025027134911301777,0.044548821686740014
1715693963112917800,2.958917724609375,-0.27688583731651306,-0.012642527930438519,-0.31928619742393494,-0.06796431541442871,-0.4601520895957947,-0.8852349519729614,0.004396185278892517,-0.030921578407287598,0.025783658027648926,0.9699353590305921,0.23829147331400996,-0.024488758883531622,0.042929118203747174
1715693963122907600,2.96890771484375,-0.1806487888097763,-0.04016336798667908,-0.2724378705024719,-0.06692945957183838,-0.45835578441619873,-0.8862451314926147,0.004505738615989685,-0.009600788354873657,0.018020033836364746,0.9702619996052022,0.23724187262137186,-0.02436637994175346,0.04140481791956335
1715693963132896800,2.978896728515625,-0.2029722034931183,0.10231122374534607,-0.18578951060771942,-0.06568168848752975,-0.45689892768859863,-0.8870903849601746,-0.006950154900550842,-0.0008494853973388672,0.0065209269523620605,0.9705275813398969,0.236383933140571,-0.024030236095336374,0.04026854384978057
1715693963142886700,2.98888671875,-0.29115644097328186,0.5016202926635742,0.14008472859859467,-0.06276808679103851,-0.45476269721984863,-0.8883980512619019,-0.01932421326637268,0.017781436443328857,-0.0031272172927856445,0.9708562882540996,0.23514580937472657,-0.022526176987563942,0.040461545579551006
1715693963152875800,2.998875732421875,-0.3498871326446533,0.5303128957748413,0.34079787135124207,-0.05914046987891197,-0.45172035694122314,-0.890197217464447,-0.04289504885673523,0.023299306631088257,-0.006546497344970703,0.9712402704958861,0.23343163204721595,-0.02027448263584626,0.04232006429379548
1715693963162864600,3.00886474609375,-0.3323676586151123,0.24131065607070923,0.28201356530189514,-0.05700079724192619,-0.44840559363365173,-0.8920108675956726,-0.1108153760433197,-0.028370559215545654,0.004162967205047607,0.9716178234586723,0.2316081662341833,-0.018767768072929653,0.044321842587624616
1715693963172854800,3.018854736328125,-0.13946054875850677,-0.07633762061595917,0.12169713526964188,-0.05728555843234062,-0.4461230933666229,-0.8931363821029663,-0.13180136680603027,-0.07745176553726196,0.013589262962341309,0.9718585907605366,0.23039441050848858,-0.01871451016090306,0.04537836417828106
1715693963182843600,3.02884375,0.08731907606124878,-0.1961878538131714,-0.03363439813256264,-0.05879560112953186,-0.4459315538406372,-0.8931338787078857,0.01259198784828186,-0.027426600456237793,0.014181852340698242,0.9718566586393851,0.23033298075805037,-0.01948777276872239,0.04540590871481265
1715693963192833500,3.03883349609375,0.14801597595214844,-0.13989795744419098,-0.10443133860826492,-0.06001434847712517,-0.4471273720264435,-0.8924546837806702,0.10202179849147797,0.030821800231933594,0.010603547096252441,0.971708151952196,0.23100598004525905,-0.020220892385402325,0.04484026059852192
1715693963202822700,3.04882275390625,0.08203541487455368,-0.034552622586488724,-0.056317273527383804,-0.06040709838271141,-0.4482395052909851,-0.8918701410293579,0.08010619878768921,0.04787936806678772,-0.00835263729095459,0.9715812708402392,0.2316114665532817,-0.020519781761596703,0.04432817255180915
1715693963212811800,3.058811767578125,-0.006043044850230217,0.04886264353990555,0.07004652172327042,-0.060357388108968735,-0.44856858253479004,-0.8917080163955688,0.003762532025575638,0.03630661964416504,-0.015030205249786377,0.9715373169057491,0.23179029426579686,-0.020475563955325654,0.04437597421205186
1715693963222801700,3.0688017578125,-0.04427240043878555,0.06333772838115692,0.13144397735595703,-0.06031043455004692,-0.44822993874549866,-0.8918814659118652,-0.05632774159312248,0.004382282495498657,-0.01050800085067749,0.9715550151563699,0.23161689428609789,-0.020319364575882404,0.04496147186569982
1715693963232790800,3.078790771484375,-0.017009887844324112,0.030963273718953133,0.08698329329490662,-0.060388267040252686,-0.44786497950553894,-0.8920595645904541,-0.06220085918903351,-0.012233316898345947,-0.0038754940032958984,0.9715721577599465,0.23143324622913075,-0.020220860828272222,0.04557732288040467
1715693963242779600,3.088779541015625,0.02123342454433441,-0.027471274137496948,0.005671195685863495,-0.060577355325222015,-0.4478594660758972,-0.8920494914054871,-0.028488200157880783,-0.007142394781112671,-0.001093149185180664,0.9715592337070562,0.23144018304470154,-0.02026556265059261,0.045797934849668265
1715693963252769800,3.098769775390625,0.033175837248563766,-0.05630505457520485,-0.01728951372206211,-0.060922373086214066,-0.4481331706047058,-0.8918885588645935,0.009057745337486267,0.0045601725578308105,-0.002062857151031494,0.9715223846912091,0.23159695653075513,-0.02045930208687559,0.04570231089190224
1715693963262758700,3.108758544921875,0.0008109193295240402,-0.05041520670056343,0.015043659135699272,-0.06140511855483055,-0.4483042359352112,-0.8917694091796875,0.027210164815187454,0.00837811827659607,0.0033112168312072754,0.9714953087332213,0.23170214503764436,-0.02072199240708611,0.04562427200487429
1715693963272748800,3.118748779296875,-0.029864702373743057,-0.01688334532082081,0.04499116912484169,-0.061866577714681625,-0.44813302159309387,-0.8918235898017883,0.022712532430887222,0.001615077257156372,0.0077751874923706055,0.9715038645428641,0.23162447281567022,-0.02093580441258487,0.045738143819914645
1715693963282737700,3.128737548828125,-0.04131714627146721,0.010680105537176132,0.0539320707321167,-0.06201361119747162,-0.4476931095123291,-0.8920342922210693,0.006975162774324417,-0.0039517879486083984,0.009130299091339111,0.9715473350279157,0.23139411531820303,-0.0209670413459125,0.04596630603834906
1715693963292726500,3.1387265625,-0.024126440286636353,-0.004491390660405159,0.04804834723472595,-0.062197498977184296,-0.44732093811035156,-0.8922082185745239,-0.005887225270271301,-0.005209028720855713,0.010967373847961426,0.9715801945556792,0.23120222619828446,-0.02101036231592876,0.04621710212014929
1715693963302716700,3.148716552734375,0.007713194005191326,-0.03340506553649902,0.03851356357336044,-0.06261617690324783,-0.44720497727394104,-0.8922370672225952,-0.0011808276176452637,-0.00219687819480896,0.006082892417907715,0.9715786325292965,0.23115527835646044,-0.0211829363496263,0.046406903037873204
1715693963312705500,3.15870556640625,0.02828078716993332,-0.05065649002790451,0.03363411873579025,-0.06322501599788666,-0.4473642110824585,-0.8921142816543579,0.019935831427574158,0.006171524524688721,0.0014282464981079102,0.9715408516920297,0.23126235504896542,-0.021461233931919538,0.046536071591459394
1715693963322694700,3.168694580078125,0.035641126334667206,-0.04600101709365845,0.04149137809872627,-0.06385789066553116,-0.44765162467956543,-0.891925036907196,0.03395065665245056,0.008778303861618042,0.001101672649383545,0.9714861671579466,0.23143992206172315,-0.02174990824182642,0.04666096779191231
1715693963332684500,3.1786845703125,0.026068657636642456,-0.029260916635394096,0.05155785754323006,-0.06437589973211288,-0.4479036331176758,-0.8917612433433533,0.03173734247684479,0.007199287414550781,0.000007092952728271484,0.9714352323360695,0.23159631348032414,-0.021966495083764193,0.04684410887629137
1715693963342673700,3.188673583984375,0.018820812925696373,-0.012973026372492313,0.05315103009343147,-0.06472676247358322,-0.4480559229850769,-0.8916593194007874,0.021223947405815125,0.004589706659317017,-0.0015444159507751465,0.9713980806073929,0.23169458713601088,-0.022089808717494455,0.047067919429071736
1715693963352663600,3.19866357421875,0.006295966450124979,-0.01778935268521309,0.055931903421878815,-0.0650188997387886,-0.44814223051071167,-0.8915947079658508,0.012696504592895508,0.0008155405521392822,-0.00267714262008667,0.9713697647330692,0.23175565337516296,-0.022180479980563605,0.04730845953105195
1715693963362652400,3.20865234375,0.005160927306860685,-0.018768861889839172,0.055084288120269775,-0.0653826892375946,-0.44817298650741577,-0.8915526270866394,0.013930052518844604,-0.0055928826332092285,-0.0010560154914855957,0.9713468247215531,0.2317888675450688,-0.022307120342123468,0.04755791379671526
1715693963372641500,3.2186416015625,0.01534245815128088,-0.015346168540418148,0.04952813312411308,-0.06577526032924652,-0.448275625705719,-0.8914721608161926,0.02100597321987152,-0.0067262351512908936,0.004860222339630127,0.9713146981547278,0.23186178912429567,-0.022450581319607574,0.04779161860837938
1715693963382631400,3.22863134765625,0.02394809015095234,-0.019441576674580574,0.040455009788274765,-0.06609474122524261,-0.44845813512802124,-0.8913567066192627,0.025719985365867615,-0.0042091310024261475,0.007857561111450195,0.9712754982140815,0.23197514019446228,-0.022564911284716493,0.04798196915878933
1715693963392620500,3.23862060546875,0.024814415723085403,-0.022171050310134888,0.03667358681559563,-0.06625835597515106,-0.44859597086906433,-0.8912752270698547,0.026509210467338562,-0.0022860169410705566,0.0007722973823547363,0.9712477130961743,0.23205831617825515,-0.02261255617975659,0.04812059394732693
1715693963402610400,3.2486103515625,0.026100190356373787,-0.015224463306367397,0.029080381616950035,-0.06627427786588669,-0.4487273693084717,-0.8912078738212585,0.02287827432155609,0.0025450587272644043,-0.0011565685272216797,0.971224630675857,0.2321330632781895,-0.022589675841283838,0.048237374277020684
1715693963412599600,3.258599609375,0.013701045885682106,-0.014533371664583683,0.02267281524837017,-0.06623692065477371,-0.44881415367126465,-0.8911669254302979,0.019789159297943115,0.0009076595306396484,0.0018389225006103516,0.9712098099176683,0.23218118612754124,-0.022548301159771383,0.04832144213921452
1715693963422588700,3.268588623046875,-0.0023881224915385246,-0.011706959456205368,0.021152617409825325,-0.06624000519514084,-0.448800653219223,-0.8911735415458679,0.01698462665081024,-0.006124913692474365,-0.00573807954788208,0.971208241089218,0.23217545999105027,-0.022534114329588836,0.04838877633171379
1715693963432578600,3.27857861328125,-0.019628629088401794,-0.006187558174133301,0.017677726224064827,-0.06627248227596283,-0.44866007566452026,-0.8912419080734253,0.01552174985408783,-0.012399554252624512,-0.010293126106262207,0.9712224811000696,0.2321014483336254,-0.022538037168567324,0.0484563716828571
1715693963442567700,3.288567626953125,-0.01844799518585205,0.00021548033691942692,0.014529136009514332,-0.06622635573148727,-0.448524534702301,-0.8913135528564453,0.014361724257469177,-0.01323699951171875,-0.0052471160888671875,0.9712381540965251,0.2320275205620011,-0.022504534965525458,0.04851111853301088
1715693963452556500,3.298556640625,-0.019788630306720734,-0.0028061422053724527,0.01568761095404625,-0.06612040102481842,-0.4484332501888275,-0.8913673162460327,0.012028001248836517,-0.011756569147109985,-0.0029960274696350098,0.9712501743285855,0.23197546542116837,-0.022443676351513897,0.04854727316438917
1715693963462546700,3.308546630859375,-0.006457805633544922,0.004554302431643009,0.020445814356207848,-0.06598105281591415,-0.44840553402900696,-0.8913916349411011,0.007234707474708557,-0.00806117057800293,-0.007885098457336426,0.9712538750777204,0.23195734511185445,-0.022360325162977715,0.04859934369298785
1715693963472535600,3.31853564453125,0.0028898892924189568,0.006263519171625376,0.017594102770090103,-0.06580629199743271,-0.4484100043773651,-0.8914023041725159,0.002222910523414612,0.0032500624656677246,-0.004517495632171631,0.9712526533911094,0.231956292019139,-0.022251682321447655,0.04867787425474718
1715693963482525700,3.328525634765625,-0.00016193324699997902,0.0013630364555865526,0.015141862444579601,-0.0656668171286583,-0.4483846426010132,-0.8914253115653992,-0.0021890252828598022,0.011647552251815796,0.0005561709403991699,0.9712552370298675,0.23193978485825645,-0.02216481867534298,0.04874416957775862
1715693963492514600,3.3385146484375,-0.013975483365356922,0.005968441255390644,0.01782260090112686,-0.06555702537298203,-0.44833192229270935,-0.8914599418640137,-0.0018868297338485718,0.007505476474761963,-0.0010876655578613281,0.9712610483491784,0.23190915944326843,-0.022094697063759494,0.04880701626020639
1715693963502503700,3.348503662109375,-0.03710349276661873,0.010523244738578796,0.021904559805989265,-0.06544582545757294,-0.4481309652328491,-0.8915691375732422,-0.002013280987739563,0.0008958578109741211,-0.0048236846923828125,0.9712845562793739,0.23179843698115132,-0.022021130606845532,0.04889648539181807
1715693963512493600,3.35849365234375,-0.05078361928462982,0.0208312775939703,0.02332242764532566,-0.0652952566742897,-0.44778022170066833,-0.8917563557624817,-0.004239045083522797,-0.006489187479019165,-0.0018898248672485352,0.971326801865405,0.23160559353013727,-0.021924108377485763,0.049015026531126715
1715693963522482700,3.368482666015625,-0.05772019550204277,0.025135478004813194,0.015326019376516342,-0.06506136059761047,-0.4473877251148224,-0.8919703960418701,-0.0076315030455589294,-0.008178681135177612,0.0030696988105773926,0.9713766259942749,0.2313871987167863,-0.021788812147917905,0.0491191247709159
1715693963532471600,3.378471435546875,-0.05051634460687637,0.021117832511663437,0.009043090976774693,-0.06481760740280151,-0.44701412320137024,-0.8921754360198975,-0.01234610378742218,-0.007255285978317261,0.0020540356636047363,0.9714259066303612,0.23117801283624256,-0.021656304178729047,0.049188536122170334
1715693963542461700,3.388461669921875,-0.036836642771959305,0.01686476543545723,0.012564987875521183,-0.06466531753540039,-0.4466661512851715,-0.8923608064651489,-0.01263570785522461,-0.005497574806213379,-0.004260897636413574,0.9714703692888806,0.23098545775562243,-0.021571486996781908,0.0492524481903589
1715693963552450600,3.398450439453125,-0.018687201663851738,0.017262641340494156,0.007182473316788673,-0.06454399228096008,-0.4463830888271332,-0.8925111889839172,-0.01011727750301361,0.001329958438873291,-0.0015928149223327637,0.9715055454218081,0.23082929984924497,-0.021499722436788188,0.049321708002668496
1715693963562440700,3.408440673828125,0.0025610956363379955,0.008598845452070236,0.0003299601376056671,-0.06448303163051605,-0.44623085856437683,-0.8925917148590088,-0.006912834942340851,0.008532464504241943,0.008772194385528564,0.9715248958412649,0.23074523382649909,-0.021465560626321184,0.049349614572628375
1715693963572429600,3.4184296875,0.017591442912817,-0.003830926725640893,-0.004768128972500563,-0.06447100639343262,-0.4462926685810089,-0.892561674118042,-0.00570417195558548,0.007144719362258911,0.008024990558624268,0.971517030676196,0.23077856367967592,-0.021457183170315322,0.049352438712199576
1715693963582418700,3.428418701171875,0.021471776068210602,-0.007271997630596161,0.00619810214266181,-0.06453688442707062,-0.44646498560905457,-0.8924707770347595,-0.005745112895965576,0.007301747798919678,0.0018762946128845215,0.9714932188649106,0.23087448037753144,-0.021484752900505166,0.04936080654143793
1715693963592408600,3.43840869140625,0.02747800387442112,-0.004408299922943115,0.015706386417150497,-0.06466762721538544,-0.4467383921146393,-0.8923244476318359,-0.004958242177963257,0.009223103523254395,-0.0019168853759765625,0.9714525118909138,0.23102853932067774,-0.021531264634901764,0.049419055134645506
1715693963602397700,3.448397705078125,0.024630021303892136,-0.006555606611073017,0.02206907607614994,-0.06486054509878159,-0.44705531001091003,-0.8921517133712769,-0.006428524851799011,0.0072512030601501465,0.0058144330978393555,0.9714028883912038,0.2312091247566917,-0.02159834014848104,0.049520457100760196
1715693963612387600,3.4583876953125,0.02230401337146759,-0.013669976033270359,0.026310427114367485,-0.06514248251914978,-0.44732344150543213,-0.8919967412948608,-0.008298061788082123,0.003780931234359741,0.005400121212005615,0.9713573642693725,0.23136615426627272,-0.021709964501806414,0.049631757358735096
1715693963622376700,3.468376708984375,0.022467903792858124,-0.01857019029557705,0.0222165510058403,-0.06547947227954865,-0.4475322663784027,-0.8918673396110535,-0.008128926157951355,0.0007548928260803223,0.0001437067985534668,0.9713184884185277,0.23149260511918385,-0.021852169231490706,0.04973948086820745
1715693963632365800,3.47836572265625,0.02058504894375801,-0.018319321796298027,0.0208122655749321,-0.06579756736755371,-0.4476843774318695,-0.8917675614356995,-0.005827188491821289,0.00017458200454711914,-0.0002917647361755371,0.9712882108124135,0.23158723618336174,-0.021990198274326064,0.049829871221465816
1715693963642355700,3.488355712890625,0.010952609591186047,-0.02183416113257408,0.02238965593278408,-0.06611498445272446,-0.4477669298648834,-0.8917026519775391,-0.00299207866191864,-0.002809882164001465,0.0048770904541015625,0.9712668269994993,0.23164405854881115,-0.022129332830105014,0.04992144124310621
1715693963652344600,3.498344482421875,-0.0026281801983714104,-0.02899779938161373,0.019529953598976135,-0.06647051125764847,-0.4477415680885315,-0.8916889429092407,0.003009214997291565,-0.010190010070800781,0.008968055248260498,0.9712592610675334,0.23164308063025793,-0.022293474142961955,0.0500015440436668
1715693963662334700,3.508334716796875,-0.011479035951197147,-0.034676190465688705,0.008640354499220848,-0.06684427708387375,-0.4475972652435303,-0.8917334675788879,0.010066315531730652,-0.016453057527542114,0.00989753007888794,0.971269030996441,0.23157688755701233,-0.02248137053971558,0.050033826827071026
1715693963672323600,3.518323486328125,-0.019374776631593704,-0.03334328159689903,0.0006636541802436113,-0.06719112396240234,-0.44735845923423767,-0.8918272256851196,0.01560114324092865,-0.016066253185272217,0.006054520606994629,0.9712936299930721,0.23145745641058235,-0.022668204192588956,0.05002248916603891
1715693963682312700,3.528312744140625,-0.022704951465129852,-0.03669886291027069,0.004062646999955177,-0.06754209846258163,-0.44713351130485535,-0.8919134736061096,0.016104720532894135,-0.012659579515457153,0.0053778886795043945,0.9713172244034777,0.23134530870763542,-0.022860582170847576,0.04999526855117803
1715693963692302600,3.538302490234375,-0.022838909178972244,-0.03285565599799156,0.007264298852533102,-0.0679391473531723,-0.44689613580703735,-0.8920023441314697,0.012351363897323608,-0.011508435010910034,0.0056040287017822266,0.971340425308747,0.231228338859978,-0.023071528565832958,0.04999069485220653
1715693963702291700,3.548291748046875,-0.003781062550842762,-0.027036113664507866,0.013833384960889816,-0.06828899681568146,-0.44675543904304504,-0.8920460939407349,0.00993937999010086,-0.008902549743652344,0.004457652568817139,0.9713507362676995,0.2311631089210724,-0.023250084318976294,0.05001019058301914
1715693963712280600,3.558280517578125,0.01129988580942154,-0.02512343041598797,0.018895521759986877,-0.06862296909093857,-0.44679129123687744,-0.892002522945404,0.005237966775894165,-0.004640012979507446,0.00041621923446655273,0.9713364691619775,0.23119443979489313,-0.023406793513806465,0.05006873269203771
1715693963722270700,3.568270751953125,0.030692225322127342,-0.0275996383279562,0.015813378617167473,-0.06894520670175552,-0.4470081627368927,-0.8918690085411072,0.0017607510089874268,0.0026416778564453125,-0.0028453469276428223,0.9712989578291815,0.2313239998042349,-0.023552346112499137,0.050129832072217495
1715693963732259600,3.578259521484375,0.04776974767446518,-0.028965840116143227,0.0063375853933393955,-0.0692058578133583,-0.44748473167419434,-0.891609787940979,0.002265557646751404,0.012288779020309448,-0.002723097801208496,0.9712314134355815,0.23159191326110456,-0.023670626638855358,0.050145418830235766
1715693963742249700,3.588249755859375,0.053650859743356705,-0.025661922991275787,0.007998399436473846,-0.06938675791025162,-0.44811150431632996,-0.8912808895111084,0.0023243725299835205,0.01949208974838257,-0.0037233829498291016,0.9711470814474035,0.23193864317288992,-0.02374936621520264,0.05013933917292723
1715693963752238800,3.59823876953125,0.03636081889271736,-0.022229906171560287,0.00813741609454155,-0.06949982792139053,-0.4486703872680664,-0.8909908533096313,0.0012472718954086304,0.02029511332511902,-0.006241202354431152,0.9710729093151436,0.2322462818238817,-0.02379570705149721,0.05013018169723604
1715693963762227700,3.608227783203125,0.007961241528391838,-0.012645456939935684,0.00801930483430624,-0.06955832242965698,-0.4489564895629883,-0.8908421397209167,0.0012904852628707886,0.010571449995040894,-0.005672752857208252,0.9710343446196067,0.23240404047797697,-0.0238179151037249,0.05013314916688061
1715693963772217900,3.6182177734375,-0.0040059396997094154,0.0018900760915130377,0.00750904344022274,-0.06954114884138107,-0.4490467607975006,-0.8907979726791382,0.00136488676071167,0.0021778345108032227,-0.005137085914611816,0.971021889231559,0.23245322738550045,-0.02380129178073842,0.050156328317861154
1715693963782206700,3.628206787109375,-0.004484296776354313,0.004399572499096394,0.009300485253334045,-0.06947499513626099,-0.44904741644859314,-0.8908028602600098,0.0003221482038497925,-0.00038501620292663574,-0.0023245811462402344,0.971021195278923,0.23245241337853798,-0.023758341116606962,0.05019369342932589
1715693963792196900,3.63819677734375,0.0005112611688673496,0.0006961809704080224,0.01348191499710083,-0.06946065276861191,-0.44903263449668884,-0.8908113837242126,-0.0019352138042449951,0.003887951374053955,-0.005428791046142578,0.9710204828570967,0.23244530618955384,-0.02373766334213337,0.05025082376463885
1715693963802185700,3.648185791015625,0.014984316192567348,0.00031348480843007565,0.020388556644320488,-0.06952743977308273,-0.4490336775779724,-0.8908056616783142,-0.0026161223649978638,0.011258989572525024,-0.006777346134185791,0.9710148652658516,0.23244989966327467,-0.023753418141427757,0.05032824716426676
1715693963812174800,3.6581748046875,0.017718583345413208,0.005356979090720415,0.022229600697755814,-0.0695844441652298,-0.4490560293197632,-0.8907899260520935,0.000004366040229797363,0.015767395496368408,-0.0034360885620117188,0.9710050588361744,0.23246660049236217,-0.023755082506433864,0.050441304828801825
1715693963822164700,3.668164794921875,0.010653856210410595,0.0038743973709642887,0.015123287215828896,-0.06959747523069382,-0.4489955008029938,-0.8908194303512573,0.00313018262386322,0.012578845024108887,-0.0021859407424926758,0.9710070833373122,0.23243664907062306,-0.02373813937722044,0.05054640182691461
1715693963832153900,3.67815380859375,0.010005909018218517,0.008239052258431911,0.01688816398382187,-0.0696253776550293,-0.44891056418418884,-0.8908600807189941,0.006820201873779297,0.005932629108428955,-0.0006651878356933594,0.9710122940547378,0.23239374112687738,-0.023730137829025402,0.050648662449434945
1715693963842143700,3.688143798828125,0.005602159537374973,0.00822760071605444,0.01458779163658619,-0.06962192058563232,-0.4488808512687683,-0.8908752799034119,0.009487032890319824,0.002637535333633423,0.0027527213096618652,0.9710115729502252,0.232379628826089,-0.02370785423652305,0.05073749456991006
1715693963852132900,3.6981328125,0.0008374978788197041,0.005964179523289204,0.01206391490995884,-0.06960718333721161,-0.4488663673400879,-0.89088374376297,0.008221074938774109,0.0010361671447753906,0.0007012486457824707,0.971009481648439,0.23237326315385592,-0.023681139436877663,0.05081901259121796
1715693963862121700,3.708121826171875,-0.008844690397381783,0.00939912535250187,0.008908001706004143,-0.06956735998392105,-0.44881540536880493,-0.8909125328063965,0.004702255129814148,0.0006952583789825439,0.0015997886657714844,0.971013812652085,0.23234566806167783,-0.0236479882563648,0.050877456412608824
1715693963872111900,3.71811181640625,-0.007951732724905014,0.011566405184566975,-0.00026099529350176454,-0.06950771808624268,-0.4486955404281616,-0.8909775614738464,0.004947781562805176,-0.0005843043327331543,0.0030991435050964355,0.9710291835985747,0.2322791338052897,-0.023613922966473813,0.05090449001384861
1715693963882100700,3.728100830078125,0.0022656982764601707,0.016848785802721977,-0.0021186834201216698,-0.06939084827899933,-0.44854968786239624,-0.8910601139068604,0.0031829625368118286,-0.0020881593227386475,0.0029680728912353516,0.9710501148711572,0.23219615525064796,-0.02355608408174094,0.05091076719438692
1715693963892089600,3.738089599609375,0.015783902257680893,0.020646454766392708,0.003332274965941906,-0.06923108547925949,-0.44849810004234314,-0.8910984992980957,-0.001157715916633606,-0.003482520580291748,0.004883289337158203,0.9710589330290536,0.2321634915633553,-0.023470452411093065,0.05093114246408936
1715693963902079700,3.748079833984375,0.03876639902591705,0.01908957026898861,0.0034152320586144924,-0.0690489187836647,-0.4486336410045624,-0.8910443782806396,-0.0042848289012908936,-0.0011191964149475098,0.004447758197784424,0.9710430396471985,0.232232409773873,-0.02336458670723192,0.05096807299255335
1715693963912068600,3.758068603515625,0.05223267525434494,0.020682139322161674,-0.0024482496082782745,-0.06882037967443466,-0.4490005075931549,-0.8908773064613342,-0.005596742033958435,0.0043593645095825195,-0.00019019842147827148,0.9709987240033633,0.23242556299412484,-0.023231716014525394,0.050993626291379046
1715693963922058800,3.768058837890625,0.05192161723971367,0.01856226474046707,-0.006586868315935135,-0.06858047097921371,-0.4494626522064209,-0.8906627297401428,-0.006202861666679382,0.009185552597045898,-0.0005573630332946777,0.9709432197879555,0.23266978460043408,-0.023095845234044787,0.05099709160059346
1715693963932047600,3.778047607421875,0.03977680206298828,0.009273423813283443,-0.007576232776045799,-0.068395234644413,-0.44986841082572937,-0.8904720544815063,-0.0044654905796051025,0.009240329265594482,-0.0019992589950561523,0.9708946861327465,0.23288471930670107,-0.02299287831888011,0.05098639487895351
1715693963942036700,3.78803662109375,0.014369925484061241,0.012034854851663113,-0.01031915470957756,-0.068238765001297,-0.4501064717769623,-0.8903638124465942,-0.0035385936498641968,0.007006466388702393,0.0002576112747192383,0.9708685003106909,0.2330087157198365,-0.022913833129812697,0.050955446151868866
1715693963952026600,3.798026611328125,-0.003201877698302269,0.016237324103713036,-0.006401645485311747,-0.06805334240198135,-0.45014095306396484,-0.8903605341911316,-0.0014046579599380493,0.0028295516967773438,0.003672301769256592,0.9708692961101549,0.23302090115506813,-0.022825110479648567,0.050924502685434525
1715693963962015700,3.808015625,-0.01502801850438118,0.02234155498445034,-0.0016381158493459225,-0.06783846765756607,-0.4500584006309509,-0.8904186487197876,-0.0019704848527908325,-0.00180014967918396,0.006522834300994873,0.9708840542740161,0.23296919330923627,-0.022716021996298907,0.050927811574050075
1715693963972005600,3.818005615234375,-0.011396797373890877,0.01463489979505539,0.005976127926260233,-0.06770192831754684,-0.44996753334999084,-0.8904749751091003,-0.0028394460678100586,-0.002684473991394043,0.008288145065307617,0.9708968173722453,0.23291613920814655,-0.022640134182888752,0.050961393750087125
1715693963981994800,3.827994873046875,-0.00018057553097605705,0.0032517502550035715,0.009250417351722717,-0.067695252597332,-0.44992712140083313,-0.8904958963394165,0.0013500303030014038,0.0001437664031982422,0.008705735206604004,0.9708994932769233,0.23289509272788902,-0.022625838879688845,0.05101098970567458
1715693963991983600,3.837983642578125,0.01591716706752777,-0.004018945619463921,0.011211836710572243,-0.0677972137928009,-0.44995471835136414,-0.8904742002487183,0.006456881761550903,0.006808936595916748,0.004915118217468262,0.9708915620575109,0.23291441415516284,-0.02266669189578842,0.05105613045882429
1715693964001973500,3.847973388671875,0.026503819972276688,-0.00681579764932394,0.018635664135217667,-0.06796663999557495,-0.45006269216537476,-0.8904067277908325,0.008121669292449951,0.015675485134124756,0.0056258440017700195,0.9708699683424792,0.23298048513897024,-0.02273189471834075,0.051135634315312595
1715693964011962600,3.857962646484375,0.03517187386751175,-0.006592358462512493,0.03074692189693451,-0.06816430389881134,-0.4502394199371338,-0.8903022408485413,0.006045781075954437,0.02035355567932129,0.003522515296936035,0.9708366812484577,0.2330859184257394,-0.0227997614836591,0.05125709674168283
1715693964021952500,3.867952392578125,0.03803892806172371,-0.008270150050520897,0.03399178385734558,-0.06841117143630981,-0.4504889249801636,-0.8901571035385132,0.0028441548347473145,0.019077181816101074,0.0019735097885131836,0.9707908188804835,0.23323354756094483,-0.02288163001448716,0.05141760314626087
1715693964031941600,3.877941650390625,0.0336601585149765,-0.011231851764023304,0.03549913316965103,-0.06867775321006775,-0.45078322291374207,-0.889987587928772,0.003263324499130249,0.014946401119232178,-0.00040853023529052734,0.9707385341195596,0.2334063139334947,-0.02297196664744544,0.051580021750689486
1715693964041930800,3.8879306640625,0.030470117926597595,-0.015219136141240597,0.040425047278404236,-0.06897281110286713,-0.4510795474052429,-0.8898146152496338,0.0056030601263046265,0.009902149438858032,-0.001146078109741211,0.970684750642296,0.2335814415565139,-0.02307403574926077,0.051754074567591346
1715693964051920600,3.897920654296875,0.018358595669269562,-0.015077722258865833,0.03780875727534294,-0.06929799914360046,-0.4513135850429535,-0.8896706700325012,0.007850855588912964,0.0042462944984436035,-0.0023428797721862793,0.9706385392938994,0.23372361626651555,-0.023193753956821606,0.051925646060691555
1715693964061909800,3.90790966796875,0.018348421901464462,-0.0025499460753053427,0.038769494742155075,-0.06955089420080185,-0.4514513313770294,-0.889581024646759,0.0074781328439712524,0.0020189285278320312,-0.0005251765251159668,0.9706062437525804,0.23381102662024877,-0.02327858367294769,0.052098099043414225
1715693964071899600,3.917899658203125,0.02243823930621147,0.006035286001861095,0.03765309602022171,-0.06965610384941101,-0.45155617594718933,-0.8895195722579956,0.0033871829509735107,0.0007199645042419434,-0.0017005205154418945,0.9705804527599837,0.23387604459802092,-0.023285225680308747,0.05228353479978226
1715693964081888800,3.927888671875,0.031209677457809448,0.001507113454863429,0.031090402975678444,-0.0697164237499237,-0.4516604244709015,-0.8894619345664978,0.0009755790233612061,-0.00010657310485839844,-0.0016818642616271973,0.9705557367777975,0.23393921227347295,-0.023269986726292977,0.052464021229417346
1715693964091877600,3.937877685546875,0.03918025270104408,0.0026394894812256098,0.028563860803842545,-0.06980547308921814,-0.4518304467201233,-0.8893685340881348,0.0009120479226112366,-0.0006383955478668213,-0.002355039119720459,0.970523083173753,0.23403866000461754,-0.023272882678388382,0.052623211386387425
1715693964101867800,3.94786767578125,0.03676737844944,0.005779090337455273,0.027192067354917526,-0.06989317387342453,-0.45202624797821045,-0.8892621994018555,0.002571389079093933,0.00012189149856567383,-0.0030565261840820312,0.9704874803578813,0.234151930656467,-0.023276288796385478,0.05277445537587333
1715693964111856600,3.957856689453125,0.02927244082093239,0.01006970927119255,0.020797550678253174,-0.06989428400993347,-0.45218130946159363,-0.8891832828521729,0.004327252507209778,-0.0023627877235412598,-0.0015943050384521484,0.9704600856161334,0.23423965280085812,-0.02324120602552404,0.0529051309612939
1715693964121845800,3.967845703125,0.014079853892326355,0.00967422965914011,0.014366417191922665,-0.06983216106891632,-0.45228028297424316,-0.8891378045082092,0.004570312798023224,-0.005849629640579224,-0.002845168113708496,0.9704432291693099,0.2342938469091744,-0.023183685046628363,0.053000236722170024
1715693964131835600,3.977835693359375,0.010279522277414799,0.013309977017343044,0.005496492609381676,-0.06971447169780731,-0.45234543085098267,-0.8891139030456543,0.004315301775932312,-0.006791591644287109,-0.0007328987121582031,0.9704336895452716,0.23432697978605962,-0.023106445805694376,0.05306244417434042
1715693964141824800,3.98782470703125,0.00574495829641819,0.013211440294981003,-0.0038243047893047333,-0.06955377757549286,-0.4524003863334656,-0.8890985250473022,0.004185110330581665,-0.003974735736846924,0.003371596336364746,0.9704289188977467,0.2343519826926287,-0.02301955912156889,0.053074196253399264
1715693964151814700,3.997814697265625,0.6589000821113586,-0.7489882111549377,0.12606632709503174,-0.07412754744291306,-0.4552684426307678,-0.8872630596160889,0.01023901253938675,-0.00017589330673217773,0.0019634366035461426,0.9699735968658837,0.2360607394102286,-0.025373135186695414,0.05275125892587612
1715693964161803800,4.0078037109375,0.23396092653274536,-0.43650779128074646,0.057343512773513794,-0.07876662164926529,-0.45946529507637024,-0.8846962451934814,0.01457289606332779,0.00038936734199523926,0.004187881946563721,0.9693115364318963,0.23851083961677833,-0.027648642917835572,0.052757186209729856
1715693964171792600,4.017792724609375,0.12822437286376953,-0.33524852991104126,0.022808704525232315,-0.08240552246570587,-0.46051663160324097,-0.883817732334137,0.03762096166610718,0.014532715082168579,0.08010679483413696,0.9690999834488003,0.23920111971411556,-0.029562740854953487,0.05248098901169135
1715693964181782800,4.02778271484375,0.27035683393478394,-0.2369648516178131,-0.0016614185879006982,-0.08487779647111893,-0.4623644948005676,-0.8826181888580322,0.026665493845939636,0.009102165699005127,-0.011699438095092773,0.9688059191403693,0.24028855047506775,-0.03085964226568408,0.05219513341364396
1715693964191771600,4.037771728515625,0.1486208438873291,-0.12015700340270996,0.00009253935422748327,-0.08642451465129852,-0.46422627568244934,-0.8814901113510132,-0.01910528540611267,-0.013068675994873047,0.062245726585388184,0.9685257582105833,0.2413556622904547,-0.03166064478313897,0.05199011215649019
1715693964201761800,4.04776171875,0.0998130813241005,-0.00579474214464426,0.011115828529000282,-0.0869075134396553,-0.4651869237422943,-0.8809359669685364,-0.008353091776371002,0.011909335851669312,0.026230216026306152,0.9683848740114818,0.24189804495041617,-0.03189592484111613,0.05194843642664437
1715693964211750700,4.057750732421875,0.0847366601228714,0.07514804601669312,0.02198978140950203,-0.08661249279975891,-0.46600791811943054,-0.8805310130119324,-0.012539133429527283,0.020741164684295654,0.01869940757751465,0.9682730498730361,0.2423432859137355,-0.03168935618758635,0.052084366892637846
1715693964221739800,4.06773974609375,-0.02078918181359768,0.16313382983207703,-0.019810527563095093,-0.08554061502218246,-0.4662613272666931,-0.8805016875267029,-0.027099773287773132,0.01795804500579834,0.02948850393295288,0.9682559855946102,0.2424516799268911,-0.031086058993315582,0.05226213948224656
1715693964231729700,4.077729736328125,-0.14221440255641937,0.25138381123542786,-0.13090616464614868,-0.08332681655883789,-0.4655875563621521,-0.8810703158378601,-0.02589559555053711,0.009471803903579712,0.012311160564422607,0.9684085717982582,0.24200310019189053,-0.029989016413977804,0.05215548440631096
1715693964241718800,4.08771875,-0.32023900747299194,0.3628978133201599,-0.24962614476680756,-0.07970654964447021,-0.46372199058532715,-0.8823881149291992,-0.007085442543029785,0.009177923202514648,0.012637138366699219,0.9687809409669115,0.24083984863411853,-0.02832137198715512,0.0515532233217198
1715693964251708700,4.097708740234375,-0.5804596543312073,0.5134982466697693,-0.3326808214187622,-0.07440126687288284,-0.4600953459739685,-0.8847467303276062,0.00611819326877594,-0.008959859609603882,0.002254664897918701,0.9694406129800667,0.2386518582917963,-0.0259215230389689,0.050581034420764615
1715693964261697800,4.10769775390625,-0.4775488078594208,0.31323251128196716,-0.1916007250547409,-0.06917967647314072,-0.4552348256111145,-0.8876798152923584,0.0075036510825157166,-0.048457831144332886,-0.005493342876434326,0.9702430687451179,0.23580558763080453,-0.023575612744768062,0.049683991493272905
