time,seconds_elapsed,rotationRateX,rotationRateY,rotationRateZ,gravityX,gravityY,gravityZ,accelerationX,accelerationY,accelerationZ,quaternionW,quaternionX,quaternionY,quaternionZ
1715273980967543300,0.052543212890625,-0.0593196377158165,-0.02367141656577587,-0.01593208685517311,0.023112330585718155,-0.3642326593399048,-0.9310211539268494,0.010731661692261696,-0.006952643394470215,0.004461705684661865,0.9826040072653914,0.18534051810027968,0.011760755687727031,-8.673617379884035e-19
1715273980977533400,0.062533447265625,-0.056181903928518295,-0.02173609845340252,-0.0159805566072464,0.022964859381318092,-0.36403724551200867,-0.9311012625694275,0.008376693353056908,-0.001471787691116333,0.0024971365928649902,0.9826244393804351,0.18523822069372028,0.011669533307911128,-0.00008454377167303479
1715273980987523300,0.0725234375,-0.058072056621313095,-0.012101846747100353,-0.01936909556388855,0.022908566519618034,-0.3638184368610382,-0.93118816614151,0.005304930731654167,0.0004609525203704834,0.0008750557899475098,0.9826464971231668,0.18512394632280366,0.011621208463606739,-0.00018767584838901182
1715273980997512400,0.082512451171875,-0.06309824436903,-0.0027751896996051073,-0.007080204784870148,0.022927619516849518,-0.3634944260120392,-0.93131422996521,0.0011965259909629822,-0.0014957785606384277,0.0005738735198974609,0.9826785762211669,0.1849539427511633,0.011616286116048192,-0.0002634943972254682
1715273981007502300,0.09250244140625,-0.06357909739017487,-0.0011983320582658052,-0.0023878482170403004,0.02298659086227417,-0.3631154000759125,-0.9314605593681335,-0.0004798769950866699,-0.0027293264865875244,-0.003125011920928955,0.9827157370718236,0.1847543545643995,0.01164192379399858,-0.0002846692074942904
1715273981017519400,0.102519287109375,-0.07717186957597733,-0.0016292314976453781,-0.005641165655106306,0.02307136170566082,-0.3626932203769684,-0.9316229820251465,-0.0018921587616205215,0.0000375211238861084,-0.0035576224327087402,0.9827571217548331,0.18452840502561607,0.011738078785214106,0
1715273981027510800,0.1125107421875,-0.08762472122907639,0.0030241096392273903,-0.01073938887566328,0.023211834952235222,-0.36215078830718994,-0.9318304657936096,-0.0021699555218219757,0.003843754529953003,-0.0028923749923706055,0.9828100313754946,0.18424251196594338,0.011808912114913389,0
1715273981037500000,0.1225,-0.0748780369758606,0.00436341343447566,-0.00640243012458086,0.023404179140925407,-0.3615761399269104,-0.9320487976074219,-0.0021334178745746613,0.0019110441207885742,-0.0001868605613708496,0.9828654996616196,0.18394036832738456,0.011897080534293138,-0.00004816579724866658
1715273981047489800,0.13248974609375,-0.058425191789865494,0.007559206336736679,-0.0019432335393503308,0.023562908172607422,-0.3610824942588806,-0.9322361946105957,-0.0011477377265691757,0.004041910171508789,0.0018010139465332031,0.9829132182139095,0.18368058259366712,0.011973312324802667,-0.00006929084732444721
1715273981057479000,0.14247900390625,-0.04336554929614067,-0.0002960530109703541,0.00635384488850832,0.023633742704987526,-0.36068543791770935,-0.9323880672454834,0.0005819667130708694,0.007810533046722412,0.004363834857940674,0.9829517593881427,0.18347119448734134,0.012012373414171782,-0.000050620857571983396
1715273981067468800,0.15246875,-0.03670487552881241,-0.00491903442889452,0.011802606284618378,0.02360576018691063,-0.3603613078594208,-0.9325140714645386,0.004027917981147766,0.01133158802986145,0.00438302755355835,0.9829838538967184,0.18329991080429678,0.012004127463771492,-0.000016457964823998576
1715273981077459000,0.162458984375,-0.03784204646945,0.00013964006211608648,0.006293058395385742,0.02354929782450199,-0.3600928783416748,-0.9326192140579224,0.005106719210743904,0.0072026848793029785,0.005357921123504639,0.983010599593007,0.1831578449817654,0.011983290394198952,0.000027585853134638565
1715273981087447800,0.17244775390625,-0.04321933910250664,0.003050208790227771,0.013940658420324326,0.02350994572043419,-0.35979223251342773,-0.9327362179756165,0.0037422608584165573,0.001820892095565796,0.00864875316619873,0.983040316608848,0.18299884092117377,0.011971481762449282,0.00007364059314009415
1715273981097438000,0.18243798828125,-0.053984634578228,-0.002818865468725562,0.012181906029582024,0.023452209308743477,-0.35938817262649536,-0.9328934550285339,0.0014654025435447693,-0.0000022649765014648438,0.009553670883178711,0.9830803168967551,0.18278508551119005,0.0119538574703475,0.00013949182145320954
1715273981107426800,0.1924267578125,-0.054763663560152054,-0.0025165968108922243,0.01030737441033125,0.0233902670443058,-0.3588642477989197,-0.9330966472625732,-0.0034927967935800552,0.0008013248443603516,0.010092556476593018,0.9831320193143359,0.18250844178279937,0.011930609508119689,0.00018755636319132702
1715273981117417000,0.2024169921875,-0.05803349241614342,0.0024419426918029785,0.005248432978987694,0.023349566385149956,-0.35835087299346924,-0.933294951915741,-0.00734308548271656,0.0001353621482849121,0.011648893356323242,0.9831823418068997,0.1822375709303189,0.011916048607081026,0.00022424320636126906
1715273981127405800,0.21240576171875,-0.056334611028432846,-0.0007977925706654787,0.0050755273550748825,0.023339686915278435,-0.35782289505004883,-0.9334977269172668,-0.008050370961427689,0.00027880072593688965,0.009944379329681396,0.9832339508621173,0.18195917142645385,0.011915674729788866,0.0002530934923246032
1715273981137396000,0.22239599609375,-0.055294912308454514,-0.003878537332639098,0.0021250112913548946,0.02332179620862007,-0.3572648763656616,-0.9337118864059448,-0.006979623809456825,0.0023452937602996826,0.0094870924949646,0.9832883706741499,0.18166518644169358,0.01190830988030084,0.0002664482060272333
1715273981147384800,0.232384765625,-0.06156916171312332,-0.006919068284332752,0.0006966249784454703,0.02329440228641033,-0.3566502332687378,-0.9339475631713867,-0.006402913480997086,0.0016390979290008545,0.008807241916656494,0.9833483673144547,0.18134151629421996,0.011894638279496952,0.0002722615817839207
1715273981157375000,0.242375,-0.05455918610095978,-0.011188115924596786,0.0006404322339221835,0.023251822218298912,-0.3561062514781952,-0.9341561198234558,-0.006131451576948166,0.0013850629329681396,0.009336292743682861,0.9834013239741509,0.1810552474170929,0.011871143551968315,0.0002661477454557696
1715273981167364900,0.25236474609375,-0.04915584623813629,-0.013122103177011013,0.0014698071172460914,0.02316073514521122,-0.35568541288375854,-0.9343187212944031,-0.005185872316360474,-0.00030231475830078125,0.008369684219360352,0.9834426172787181,0.18083366235311754,0.011824818047421847,0.00026910210327850317
1715273981177354000,0.26235400390625,-0.04623142629861832,-0.014839043840765953,0.0037263035774230957,0.02303430251777172,-0.35533538460731506,-0.9344550371170044,-0.0044490862637758255,-0.0003013908863067627,0.00521010160446167,0.9834773003209019,0.18064932175082882,0.011760370551281743,0.00027072505954444867
1715273981187344000,0.27234375,-0.047453925013542175,-0.017782902345061302,0.00011825282126665115,0.02284868434071541,-0.3549792468547821,-0.9345949292182922,-0.002722330391407013,0.000654757022857666,0.0025423765182495117,0.9835129122866113,0.18046166825435325,0.011666847973100435,0.0002779154562574356
1715273981197332700,0.282332763671875,-0.052258267998695374,-0.014731451869010925,0.0028953971341252327,0.02265084907412529,-0.35462942719459534,-0.9347325563430786,-0.0025855321437120438,0.0006864368915557861,0.0020391345024108887,0.9835478283793087,0.18027742847685385,0.011566327648425544,0.00028074598729413165
1715273981207323000,0.292322998046875,-0.06133916974067688,-0.014137832447886467,-0.00038981169927865267,0.022460075095295906,-0.3541715443134308,-0.9349107146263123,-0.00607212632894516,0.0005031824111938477,0.0024462342262268066,0.983593130743256,0.18003638716404657,0.011468650452384753,0.0002802135702425386
1715273981217311700,0.302311767578125,-0.0577782541513443,-0.008964110165834427,0.00009807944297790527,0.022321751341223717,-0.3536922037601471,-0.935095489025116,-0.009214440360665321,-0.0021429061889648438,0.004202604293823242,0.9836401018164178,0.17978417052048098,0.01139763135897321,0.0002797346771254436
1715273981227302000,0.312302001953125,-0.047320231795310974,-0.0037922507617622614,-0.0013165917480364442,0.022220419719815254,-0.3532593846321106,-0.9352614879608154,-0.010257519781589508,-0.0027435719966888428,0.0029495954513549805,0.9836822844397715,0.1795564236490248,0.011346306069601275,0.0002837593648025976
1715273981237290800,0.322290771484375,-0.0373871736228466,-0.004808779805898666,0.0025708244647830725,0.022130172699689865,-0.3529094457626343,-0.9353957176208496,-0.007268102839589119,0.00023290514945983887,0.0018478035926818848,0.983716443767047,0.17937220116837374,0.011302206836616337,0.00029592173840305245
1715273981247281000,0.332281005859375,-0.037270527333021164,-0.007405894808471203,0.0006759853567928076,0.02202538773417473,-0.3526516854763031,-0.9354954361915588,-0.004706652835011482,0.0029353201389312744,-0.0005701780319213867,0.9837417183422695,0.17923643964497138,0.011250979576726064,0.0003088865214452034
1715273981257270800,0.342270751953125,-0.032287221401929855,-0.0069944364950060844,-0.0026854565367102623,0.021939808502793312,-0.3523821234703064,-0.9355990290641785,-0.005475565791130066,0.0007584095001220703,-0.002450227737426758,0.983768100359512,0.1790947361008665,0.011205643574215633,0.00030068100328341403
1715273981267260000,0.352260009765625,-0.03802734613418579,-0.006468994542956352,-0.0012641940265893936,0.02187073789536953,-0.35210683941841125,-0.9357042908668518,-0.0032397471368312836,-0.0023244917392730713,-0.000742793083190918,0.9837948461747844,0.17895007570778876,0.011168445437946135,0.0002910889534270527
1715273983784628700,2.869628662109375,-0.12806685268878937,-0.06672381609678268,-0.10108692944049835,-0.060151033103466034,-0.5996745824813843,-0.7979801297187805,0.03648462891578674,-0.002361118793487549,-0.01892954111099243,0.9417694856274416,0.3177793305952788,0.005121148638565962,0.10981978614369717
1715273983794618600,2.87961865234375,-0.1253000944852829,-0.0606805682182312,-0.11543577164411545,-0.05998818203806877,-0.5987403988838196,-0.7986935377120972,0.03156103566288948,0.004501938819885254,-0.023800790309906006,0.9420308060591388,0.3172205654322873,0.004932586549582152,0.10920080052169648
1715273983804608500,2.8896083984375,-0.13920094072818756,-0.06722448766231537,-0.10040183365345001,-0.05984316021203995,-0.5977552533149719,-0.7994419932365417,0.03411681577563286,-0.004646658897399902,-0.0355798602104187,0.9422993332426224,0.3166331614571713,0.00473698497951799,0.10859645023416986
1715273983814597600,2.89959765625,-0.16877481341362,-0.07079046219587326,-0.08539757877588272,-0.059835176914930344,-0.5965866446495056,-0.8003150820732117,0.04202814772725105,-0.017732322216033936,-0.04352635145187378,0.9425929035158043,0.31594681804710273,0.004479890388952595,0.10805711397435404
1715273983824587500,2.90958740234375,-0.20634499192237854,-0.06282627582550049,-0.08806746453046799,-0.059864312410354614,-0.5951146483421326,-0.8014081120491028,0.043064359575510025,-0.028451263904571533,-0.04807913303375244,0.9429400685328824,0.31508466679539393,0.004196484241036277,0.10755582069322267
1715273983834576600,2.91957666015625,-0.22563399374485016,-0.06276395916938782,-0.08966775238513947,-0.059834253042936325,-0.593411386013031,-0.802672266960144,0.041996706277132034,-0.032046496868133545,-0.04611295461654663,0.9433333547474422,0.3140834878336198,0.003926141513823155,0.10704410789853509
1715273983844566500,2.92956640625,-0.23145852982997894,-0.053771793842315674,-0.08516202121973038,-0.059783220291137695,-0.5916147828102112,-0.8040012121200562,0.041899893432855606,-0.028578877449035645,-0.0415949821472168,0.9437423952846615,0.31302707355251774,0.0036649882232262544,0.1065416294757103
1715273983854555600,2.9395556640625,-0.19992510974407196,-0.03353416919708252,-0.06317070126533508,-0.059673987329006195,-0.5898832678794861,-0.8052805662155151,0.043926890939474106,-0.026236295700073242,-0.029130876064300537,0.9441285382791934,0.31200590173718873,0.003467300344844047,0.10612161737938397
1715273983864545500,2.949545654296875,-0.14677129685878754,-0.008173417299985886,-0.046916499733924866,-0.05953977257013321,-0.5885124802589417,-0.8062928915023804,0.04008479043841362,-0.022403836250305176,-0.021847307682037354,0.9444286705504156,0.3111950087364812,0.003351929291073274,0.10583570708412882
1715273983874534700,2.95953466796875,-0.10150608420372009,0.017941007390618324,-0.0651056244969368,-0.05907304584980011,-0.5875075459480286,-0.8070597052574158,0.03195814788341522,-0.003999590873718262,-0.021599292755126953,0.9446615468582975,0.3105774007248851,0.0034409196820169986,0.10556797531065572
1715273983884524500,2.969524658203125,-0.03855859488248825,0.041055645793676376,-0.07795191556215286,-0.0583060085773468,-0.5869660377502441,-0.8075093626976013,0.02192903310060501,0.019003212451934814,-0.02099698781967163,0.94481385335213,0.31021214612052456,0.0037075507429682303,0.10526973242096264
1715273983894514700,2.9795146484375,0.013770123943686485,0.04996738210320473,-0.07786136865615845,-0.05733320116996765,-0.5869331955909729,-0.8076028823852539,0.01953715831041336,0.024967074394226074,-0.024397730827331543,0.944873790905036,0.3101316799157287,0.004109424881967762,0.10495377086609815
1715273983904503600,2.989503662109375,0.03673216328024864,0.034487493336200714,-0.06188705936074257,-0.056431349366903305,-0.5871963500976562,-0.8074750900268555,0.027958422899246216,0.012779057025909424,-0.02502906322479248,0.9448703634475778,0.3102291828889845,0.004507309990606721,0.1046790574515844
1715273983914493700,2.99949365234375,0.044273436069488525,0.021065426990389824,-0.0562874972820282,-0.05574806034564972,-0.5875895619392395,-0.8072364926338196,0.03527074307203293,-0.00022494792938232422,-0.016081929206848145,0.9448357444002152,0.3104169252096095,0.0048053485651287945,0.10442180375646919
1715273983924482600,3.009482666015625,0.0400620736181736,0.025279613211750984,-0.054606180638074875,-0.05513693392276764,-0.5879777669906616,-0.8069957494735718,0.03281329944729805,-0.003376781940460205,-0.0015521049499511719,0.9447986076946218,0.31060651124087457,0.005070792436836657,0.10418115382277449
1715273983934472700,3.01947265625,0.043944962322711945,0.029381148517131805,-0.04524676501750946,-0.054472167044878006,-0.588373064994812,-0.8067527413368225,0.028165988624095917,-0.0029509663581848145,0.0064141154289245605,0.9447578950306709,0.3107969450383691,0.005373454235710293,0.10396722838789275
1715273983944461600,3.029461669921875,0.028768833726644516,0.01574416644871235,-0.01961670257151127,-0.05395800992846489,-0.5887345671653748,-0.8065235614776611,0.0242338627576828,-0.00643467903137207,0.007771849632263184,0.9447120610520896,0.31097686369857014,0.005621340479640731,0.1038326519996375
1715273983954451700,3.03945166015625,0.0064342329278588295,0.004666481167078018,-0.004280357155948877,-0.05368493124842644,-0.5888136625289917,-0.8064839839935303,0.019642546772956848,-0.005180656909942627,0.008785128593444824,0.9447077245254951,0.311006330754075,0.005750401391667696,0.10377574697097128
1715273983964441900,3.04944189453125,0.0001500253565609455,0.00017319584731012583,0.00232201861217618,-0.053580231964588165,-0.5886215567588806,-0.8066312074661255,0.015219613909721375,0.0009137988090515137,0.014974832534790039,0.944748012443175,0.3108872788156326,0.005788466779757556,0.1037635208094203
1715273983974430700,3.0594306640625,0.008057217113673687,0.004989522509276867,0.026228949427604675,-0.05353233590722084,-0.5883151888847351,-0.8068578243255615,0.01265401765704155,0.0027132034301757812,0.019824862480163574,0.9448008310294427,0.3107044714973581,0.005814833749255034,0.10382865837109735
1715273983984420900,3.0694208984375,0.021459627896547318,0.005090190097689629,0.04666078835725784,-0.05341320484876633,-0.5880547761917114,-0.8070555329322815,0.014243870973587036,0.0020865797996520996,0.02110600471496582,0.9448367044941772,0.31054356520897114,0.005909087899521379,0.10397808434015124
1715273983994409700,3.07940966796875,0.04402326047420502,-0.008537204936146736,0.05495546758174896,-0.05340536683797836,-0.5881606340408325,-0.8069789409637451,0.012664377689361572,-0.0011950135231018066,0.015520930290222168,0.944794512539892,0.3106037839225837,0.005985583819526235,0.10417719426732425
1715273984004399900,3.08939990234375,0.05808086320757866,-0.014669399708509445,0.05662680044770241,-0.0535438172519207,-0.5885623097419739,-0.8066768646240234,0.006760343909263611,0.0020753145217895508,0.011465191841125488,0.9446933997614845,0.31084647815931793,0.006003098843258154,0.10436983575090669
1715273984014388700,3.099388671875,0.07147043943405151,-0.007437053136527538,0.04661065340042114,-0.0536675900220871,-0.5891332030296326,-0.8062517642974854,0.0002160295844078064,0.011160552501678467,0.015327811241149902,0.9445611788334289,0.31118754767731727,0.006034727523865942,0.10454777285458208
1715273984024379000,3.10937890625,0.06988133490085602,0.00277377269230783,0.030280016362667084,-0.05366695672273636,-0.5898089408874512,-0.8057575821876526,-0.0005475394427776337,0.012400984764099121,0.01713770627975464,0.9444157535209918,0.31158260564657314,0.006123089508501836,0.10467921130454441
1715273984034368800,3.11936865234375,0.05169699713587761,-0.004677485674619675,0.030401721596717834,-0.053651560097932816,-0.590401291847229,-0.8053247332572937,0.0020157918334007263,-0.0029521584510803223,0.016369104385375977,0.9442895803356615,0.31192810096580004,0.006204951565181699,0.10478392791983707
1715273984044358000,3.12935791015625,0.007065828423947096,-0.019371477887034416,0.03689637407660484,-0.05380576103925705,-0.5907191634178162,-0.805081307888031,0.004931837320327759,-0.021326303482055664,0.01676654815673828,0.9442132252190346,0.31212362326901644,0.00618099786926243,0.10489132480601175
1715273984054347800,3.13934765625,-0.03651760146021843,-0.01409841887652874,0.02471907064318657,-0.0540107861161232,-0.5906633734703064,-0.8051084876060486,0.00469435378909111,-0.02943873405456543,0.019174158573150635,0.94420901468651,0.3121033420759939,0.0061040495032023715,0.10499372277747887
1715273984064337000,3.1493369140625,-0.06581199914216995,-0.005142473615705967,0.005426931660622358,-0.05404374748468399,-0.5903307795524597,-0.8053501844406128,-0.0007811076939105988,-0.028916895389556885,0.023627281188964844,0.9442691171423574,0.3119101946120197,0.00607650085608732,0.10502935088369922
1715273984074326800,3.159326904296875,-0.08960255235433578,-0.0018835633527487516,-0.0018522865138947964,-0.05397948622703552,-0.5897957682609558,-0.8057463765144348,-0.004064973443746567,-0.02697998285293579,0.023504674434661865,0.9443755144570534,0.3115926172271072,0.006069952170927757,0.10501551136696056
1715273984084316000,3.16931591796875,-0.07587598264217377,-0.013196672312915325,-0.007534673437476158,-0.05394862964749336,-0.5891770124435425,-0.8062010407447815,-0.006491459906101227,-0.020701706409454346,0.017047107219696045,0.9445003250680745,0.31122835984431635,0.00603194317991852,0.10497592976990977
1715273984094305800,3.179305908203125,-0.04777084290981293,-0.010405146516859531,-0.011746728792786598,-0.054008010774850845,-0.5886895060539246,-0.8065531253814697,-0.009285472333431244,-0.011209964752197266,0.010608971118927002,0.9446001937209088,0.3109470354805344,0.005948750653164488,0.1049156063799306
1715273984104295700,3.189295654296875,-0.007235080003738403,0.0031862962059676647,-0.0031576352193951607,-0.05401749163866043,-0.5884949564933777,-0.8066944479942322,-0.012709222733974457,-0.0010743141174316406,0.003532886505126953,0.9446419743373329,0.31083398242626264,0.005917880392137077,0.10487599824563507
1715273984114284800,3.199284912109375,0.03151471167802811,0.014100463129580021,-0.002727001905441284,-0.05391618609428406,-0.5887669324874878,-0.8065027594566345,-0.01732712611556053,0.008185088634490967,-0.002563953399658203,0.9445919944548408,0.310986802464922,0.005986643661484804,0.10486949506697109
1715273984124274700,3.209274658203125,0.04966559261083603,0.0023141109850257635,-0.008345605805516243,-0.05378009006381035,-0.5894559025764465,-0.8060083985328674,-0.01711226999759674,0.010705113410949707,-0.006201624870300293,0.9444642061890148,0.31138186478026436,0.006094131971584016,0.10484147853489814
1715273984134263800,3.219263916015625,0.049591027200222015,-0.003196768229827285,-0.010721411556005478,-0.05368359386920929,-0.5902814269065857,-0.8054104447364807,-0.013134673237800598,0.009958982467651367,-0.006143391132354736,0.944312163883382,0.31185987106342095,0.006180779481509745,0.10478546633292835
1715273984144253700,3.229253662109375,0.03159173205494881,-0.004131271503865719,-0.01072494126856327,-0.053682468831539154,-0.5910518765449524,-0.8048452734947205,-0.010480761528015137,0.005419433116912842,-0.0010323524475097656,0.9441696997145058,0.31231202169851574,0.00621088912383147,0.10472016850556104
1715273984154242800,3.239242919921875,0.012059574946761131,0.0012957182480022311,-0.010468478314578533,-0.053675681352615356,-0.5916070938110352,-0.8044376969337463,-0.010777465999126434,-0.00331801176071167,0.005411326885223389,0.9440687045046638,0.31263767550383265,0.00623086023091649,0.1046585345625681
1715273984164232700,3.249232666015625,-0.014931082725524902,0.0027862894348800182,-0.007842002436518669,-0.05365080386400223,-0.5918695330619812,-0.8042463064193726,-0.013136941939592361,-0.012165069580078125,0.01010274887084961,0.9440225769035964,0.31279037000427795,0.006247437160341041,0.10461678456395845
1715273984174222600,3.25922265625,-0.03482383117079735,0.007097947411239147,-0.005613734945654869,-0.05367438867688179,-0.5917892456054688,-0.8043038249015808,-0.0144256092607975,-0.015892207622528076,0.011152088642120361,0.9440377757428297,0.3127447609097227,0.006229826795096226,0.10461689686220452
1715273984184211700,3.269211669921875,-0.04690627381205559,0.009645793586969376,-0.008916920982301235,-0.053688857704401016,-0.591431200504303,-0.8045661449432373,-0.014365367591381073,-0.013824105262756348,0.010361552238464355,0.9441077719294796,0.31253563260909134,0.006197068453791645,0.10461248444628644
1715273984194201600,3.27920166015625,-0.04143853858113289,0.01352735050022602,-0.0050239115953445435,-0.05369864031672478,-0.590944766998291,-0.804922878742218,-0.01235668733716011,-0.010083794593811035,0.006689906120300293,0.9442004451529088,0.31225080206944955,0.006165116643667846,0.10462879629701775
1715273984204190700,3.289190673828125,-0.024169696494936943,0.010422637686133385,-0.0071867979131639,-0.053706806153059006,-0.5905405879020691,-0.8052189350128174,-0.008259162306785583,-0.007054805755615234,0.0016911625862121582,0.9442767131744643,0.31201415960851603,0.006140485672330083,0.1046482017159702
1715273984214180600,3.2991806640625,-0.008277814835309982,0.00393917178735137,-0.015470826998353004,-0.05369102209806442,-0.5902827978134155,-0.8054089546203613,-0.005925089120864868,-0.002826511859893799,-0.0050463080406188965,0.9443292580653384,0.31186217637655833,0.00612480691980336,0.10462745435918719
1715273984224169700,3.309169677734375,0.01475789025425911,0.008365877903997898,-0.02426411770284176,-0.053634293377399445,-0.5902671813964844,-0.805424153804779,-0.006561655551195145,0.002834141254425049,-0.0072740912437438965,0.9443407017130458,0.3118498389505119,0.006131315150006061,0.10456056857067084
1715273984234159600,3.31915966796875,0.028099793940782547,0.009577084332704544,-0.033275190740823746,-0.05347912758588791,-0.5905365943908691,-0.8052369952201843,-0.006869405508041382,0.0035155415534973145,-0.0073239803314208984,0.9443034663818322,0.31199863539147243,0.006193432242196092,0.10444931370962739
1715273984244149800,3.329149658203125,0.02531450055539608,0.0082929078489542,-0.03285567834973335,-0.053326111286878586,-0.5909469723701477,-0.8049460053443909,-0.005710173398256302,-0.004649460315704346,-0.009568095207214355,0.944240246133977,0.31223041646196664,0.006259071424311894,0.1043239882068318
1715273984254138600,3.339138671875,0.006477962713688612,0.004437449388206005,-0.03269428759813309,-0.05320647731423378,-0.5913174152374268,-0.8046818375587463,-0.004227630794048309,-0.013861596584320068,-0.007650256156921387,0.9441850503406831,0.3124409905273238,0.006301805645540025,0.10419026424934838
1715273984264128800,3.349128662109375,-0.022025957703590393,0.006995148956775665,-0.04524962604045868,-0.05305379629135132,-0.5914645195007324,-0.8045837879180908,-0.004822816699743271,-0.01961958408355713,-0.004620194435119629,0.9441780667372368,0.3125187796425043,0.0063343491536541445,0.10401823482456148
1715273984274117600,3.35911767578125,0.061356283724308014,-0.020125949755311012,-0.0468166321516037,-0.05286407470703125,-0.5915235280990601,-0.8045528531074524,-0.005073565989732742,-0.023222684860229492,0.0036497116088867188,0.944193072547867,0.31254283203106553,0.006367478370209453,0.10380710530027912
1715273984284107800,3.369107666015625,0.4915686547756195,0.30589795112609863,0.09254878759384155,-0.051981039345264435,-0.5945771932601929,-0.8023565411567688,-0.008520081639289856,-0.021633923053741455,0.00769418478012085,0.9435749208963843,0.314278106480179,0.007140996453628022,0.10413892783391206
1715273984294096600,3.3790966796875,-0.06978549063205719,0.26155978441238403,0.10881484299898148,-0.05042172968387604,-0.596046507358551,-0.8013652563095093,-0.03684331476688385,0.006416201591491699,0.013523578643798828,0.9432102165165506,0.31503562611620073,0.008361353022847757,0.10505916054508437
1715273984304086800,3.389086669921875,-0.036684051156044006,0.19696882367134094,0.06027653068304062,-0.049146607518196106,-0.5953482389450073,-0.8019633293151855,-0.09625442326068878,0.008357644081115723,0.0351635217666626,0.9432774593071924,0.31453571530273505,0.00925298334323263,0.10587488912549285
1715273984314075600,3.39907568359375,-0.21320022642612457,0.11628648638725281,-0.03856749087572098,-0.04805189371109009,-0.5943483710289001,-0.8027708530426025,-0.005704846233129501,-0.09147334098815918,0.06438291072845459,0.9434604738600397,0.31387508295173155,0.009848867406946958,0.10615039384383962
1715273984324065800,3.409065673828125,-0.26517799496650696,0.05473683774471283,-0.09821397066116333,-0.04695465788245201,-0.5923394560813904,-0.8043190836906433,0.05321074277162552,-0.10219496488571167,0.017057299613952637,0.9438883064509457,0.31262714800125335,0.01023305646114395,0.1059926886813203
1715273984334055700,3.4190556640625,-0.21758118271827698,-0.057462405413389206,-0.15780620276927948,-0.046213358640670776,-0.5904296636581421,-0.8057649731636047,0.024255938827991486,-0.04064345359802246,0.03344148397445679,0.9443388700331505,0.3114668831127381,0.010290968001475196,0.1053878962878352
1715273984344044800,3.429044921875,0.11153508722782135,-0.1836719959974289,-0.28089970350265503,-0.04601789638400078,-0.5901739597320557,-0.8059634566307068,0.014462694525718689,-0.003698289394378662,0.012979567050933838,0.9445329554530889,0.3113184091516626,0.009955307685663361,0.10411226109612251
1715273984354034700,3.43903466796875,0.2149490863084793,-0.20546038448810577,-0.25904926657676697,-0.045933373272418976,-0.5917695760726929,-0.8047974109649658,0.020771607756614685,0.049670398235321045,0.0001558065414428711,0.9444026397019978,0.3122655366041217,0.00956659204835926,0.10248137391071266
1715273984364023800,3.44902392578125,0.3223971426486969,-0.1366323083639145,-0.24393177032470703,-0.045889854431152344,-0.5940061211585999,-0.8031505942344666,0.008765198290348053,0.13074910640716553,-0.0011705756187438965,0.9441201878624955,0.3135903311117739,0.009263131890188564,0.10105680421372606
1715273984374013700,3.459013671875,0.41523388028144836,0.017335405573248863,-0.4249127209186554,-0.044584017246961594,-0.5971734523773193,-0.8008721470832825,0.016019541770219803,0.1344504952430725,0.009963452816009521,0.9436909948423515,0.31539133806644304,0.009603791156936763,0.09941623565976535
1715273984384002600,3.46900244140625,0.32325756549835205,0.06507682800292969,-0.4461767375469208,-0.04156054928898811,-0.6004102230072021,-0.7986115217208862,-0.011463761329650879,0.06949573755264282,-0.004885673522949219,0.94330489018282,0.3171428119483543,0.010708632884476882,0.09737499864851135
1715273984393992200,3.4789921875,0.13388177752494812,-0.024287939071655273,-0.30595970153808594,-0.03904173523187637,-0.6024068593978882,-0.7972338199615479,-0.023610875010490417,0.05157959461212158,-0.0014721155166625977,0.9431218974912561,0.31819740329715407,0.011553905120449426,0.0955935155943239
1715273984403982000,3.488982177734375,-0.049626424908638,-0.13860012590885162,-0.09694571793079376,-0.038500554859638214,-0.6028034090995789,-0.7969603538513184,-0.006406083703041077,0.03404712677001953,0.01656496524810791,0.9431602874910169,0.3184144673681018,0.011490987708033633,0.09449357478214755
1715273984413971200,3.49897119140625,-0.25337928533554077,-0.06601674109697342,0.11581049114465714,-0.03950405865907669,-0.601622462272644,-0.7978031635284424,0.007124889642000198,-0.010850250720977783,0.013806700706481934,0.9433959799017032,0.3177745924408871,0.01085053352452464,0.09436997350732296
1715273984423961000,3.508961181640625,-0.41582438349723816,0.23352336883544922,0.23494860529899597,-0.04003140702843666,-0.5988073348999023,-0.7998920679092407,0.00281519815325737,-0.05655783414840698,-0.0054819583892822266,0.9438455791272031,0.3161304527263527,0.010747505562436446,0.09540266684258422
1715273984433950200,3.5189501953125,-0.5156183242797852,0.2745959460735321,0.25691676139831543,-0.03930208832025528,-0.594978392124176,-0.802780270576477,-0.05000762641429901,-0.1449052095413208,0.0027315616607666016,0.9444431557971956,0.31381371512515766,0.011437996654575667,0.09704350003438672
1715273984443940000,3.528940185546875,-0.43413281440734863,0.16337384283542633,0.14224043488502502,-0.03865138068795204,-0.5908784866333008,-0.805834174156189,-0.07362280786037445,-0.21393126249313354,0.026781558990478516,0.9451083477243808,0.3113510553180929,0.011976291537611062,0.09842453901853837
1715273984453929200,3.53892919921875,-0.07049202919006348,-0.07882042229175568,-0.06525522470474243,-0.038558248430490494,-0.5888096690177917,-0.8073515295982361,0.024275995790958405,0.06521934270858765,0.017785608768463135,0.9454856999972328,0.3101305807421558,0.011969079164641537,0.09865430415319651
1715273984463919000,3.548919189453125,0.044897206127643585,-0.13742567598819733,-0.10300673544406891,-0.03895740583539009,-0.5889286398887634,-0.8072456121444702,0.064561627805233,0.1799623966217041,0.0029702186584472656,0.9455256167356538,0.31023169946011003,0.011553961191797548,0.09800181173813667
1715273984473909500,3.558909423828125,-0.04721834510564804,-0.03535523638129234,-0.06747723370790482,-0.03918757289648056,-0.5889832377433777,-0.8071946501731873,0.04338372126221657,0.09624624252319336,-0.006587028503417969,0.9455688257974566,0.3102836839633291,0.011257146917371683,0.09745338236766601
1715273984483898000,3.568898193359375,-0.12576603889465332,0.10317707806825638,-0.027378352358937263,-0.038631413131952286,-0.5882566571235657,-0.8077509999275208,-0.0032539814710617065,-0.004562675952911377,0.006008625030517578,0.9457328825165788,0.3098280774654474,0.011447896117007026,0.09728736634902739
1715273984493888300,3.57888818359375,-0.09712294489145279,0.15976472198963165,-0.0031747459433972836,-0.03741373494267464,-0.5872870683670044,-0.8085135817527771,-0.047638777643442154,-0.06031137704849243,0.004833221435546875,0.9459186405028963,0.309188351323231,0.012074009202216657,0.0974418920858123
1715273984503877000,3.588877197265625,0.019643671810626984,0.1083366870880127,-0.005490764044225216,-0.03625553846359253,-0.5869448781013489,-0.8088147640228271,-0.03878720849752426,-0.024993836879730225,-0.004875302314758301,0.945977592745765,0.30891864171794003,0.012723099117786305,0.0976423310529017
1715273984513867300,3.5988671875,0.11049234867095947,0.014497806318104267,-0.010171535424888134,-0.03572291135787964,-0.5875040888786316,-0.808432400226593,0.002672351896762848,0.036982059478759766,-0.010994970798492432,0.9458715178861712,0.30921421960476336,0.013052464136461129,0.09769088462378438
1715273984523856100,3.608856201171875,0.09354500472545624,-0.02426050789654255,-0.003502581035718322,-0.035764601081609726,-0.5883587598800659,-0.8078087568283081,0.030027277767658234,0.04714459180831909,-0.007453024387359619,0.9457124428635415,0.3097174651045907,0.013066208874361596,0.09763471447906533
1715273984533846300,3.61884619140625,0.00970896240323782,0.008700637146830559,-0.0021805879659950733,-0.035816095769405365,-0.5887837409973145,-0.8074967861175537,0.028858065605163574,0.010032951831817627,0.010469317436218262,0.9456339332868612,0.309969710817764,0.013053628026275856,0.09759663519835758
1715273984543836400,3.62883642578125,-0.06445150077342987,0.04944966360926628,-0.0018438310362398624,-0.035529449582099915,-0.5884692668914795,-0.8077385425567627,0.009726818650960922,-0.02984750270843506,0.027770400047302246,0.9456935973075256,0.3097685619262943,0.013196829101261104,0.09763702978385479
1715273984553825300,3.6388251953125,-0.09328927099704742,0.050142087042331696,-0.0015354369534179568,-0.03508232161402702,-0.5877651572227478,-0.8082706332206726,-0.003903903067111969,-0.04126334190368652,0.03310900926589966,0.9458264148222387,0.30932962977217693,0.013411081959448911,0.09771361716912852
1715273984563815400,3.6488154296875,-0.07503633946180344,0.015137763693928719,0.006457707844674587,-0.03482958674430847,-0.5870686173439026,-0.8087876439094543,0.001580663025379181,-0.02369511127471924,0.03104722499847412,0.9459558665160729,0.30890668511036984,0.013521829710719656,0.09778308165440103
1715273984573804300,3.65880419921875,-0.050059083849191666,-0.007953972555696964,0.017556965351104736,-0.034896329045295715,-0.5865818858146667,-0.8091378211975098,0.016021184623241425,-0.004131793975830078,0.021174073219299316,0.9460412717958835,0.3086250333478818,0.013478747252058798,0.0978521267188437
1715273984583794400,3.66879443359375,-0.04033806547522545,-0.011277864687144756,0.020766472443938255,-0.03511490672826767,-0.5862189531326294,-0.8093913793563843,0.02151930332183838,0.0027074217796325684,0.011127889156341553,0.9460999227611866,0.3084244182270275,0.013367906650890217,0.09793267581370028
1715273984593784300,3.678784423828125,-0.020024538040161133,-0.005965390242636204,0.017017541453242302,-0.035278767347335815,-0.5859451293945312,-0.8095824718475342,0.016571469604969025,0.0003584623336791992,0.006176769733428955,0.9461435574830047,0.30827299514779716,0.013286587321070034,0.09799886032031183
1715273984603773400,3.6887734375,0.009858684614300728,-0.013776175677776337,0.021159356459975243,-0.03543182089924812,-0.5858392119407654,-0.8096524477005005,0.012970861047506332,-0.005591630935668945,0.001501321792602539,0.9461546235970482,0.30821894652198867,0.013223280873349192,0.09807047307212521
1715273984613763300,3.698763427734375,0.03241459280252457,-0.030792977660894394,0.02571868896484375,-0.0357196144759655,-0.5859984755516052,-0.8095245361328125,0.017271719872951508,-0.0015108585357666016,0.0029450058937072754,0.946112356984398,0.3083275456892419,0.013109715746083654,0.09815234660160002
1715273984623752400,3.70875244140625,0.04706592112779617,-0.036219168454408646,0.02372477948665619,-0.03613089770078659,-0.5864551663398743,-0.8091754913330078,0.0207805335521698,0.0026232004165649414,0.006349682807922363,0.9460136712346853,0.30861739729627496,0.012944135302746983,0.09821473906917255
1715273984633742300,3.718742431640625,0.04258009418845177,-0.029896024614572525,0.02493198961019516,-0.03657979890704155,-0.5871894955635071,-0.8086225390434265,0.017613105475902557,0.0003210306167602539,0.008512794971466064,0.9458626639522717,0.3090721792272333,0.012771262152030862,0.09826105874914218
1715273984643731500,3.7287314453125,0.016644634306430817,-0.026391569525003433,0.03069993108510971,-0.03696738928556442,-0.5876677632331848,-0.8082574009895325,0.01407918706536293,-0.007745623588562012,0.013549327850341797,0.945757571832675,0.309373355053182,0.012625959667381616,0.0983432861721051
1715273984653721300,3.738721435546875,-0.007611171342432499,-0.023521214723587036,0.022181542590260506,-0.03720414638519287,-0.5878294706344604,-0.8081289529800415,0.01019606739282608,-0.012222588062286377,0.013878583908081055,0.9457163720357161,0.30948083875794097,0.01253536833087019,0.0984131241892149
1715273984663711200,3.748711181640625,-0.017623592168092728,-0.02776016853749752,0.014499588869512081,-0.03734328970313072,-0.5877372622489929,-0.8081896305084229,0.005284551531076431,-0.010575294494628906,0.008644402027130127,0.9457302244560135,0.3094347244544203,0.012463826014914418,0.0984345319185082
1715273984673700400,3.758700439453125,-0.030606500804424286,-0.032659053802490234,0.01994202472269535,-0.037531301379203796,-0.5875359177589417,-0.808327317237854,0.0017036423087120056,-0.009067654609680176,0.0013053417205810547,0.9457653341966816,0.30932773108633144,0.01235704981716656,0.09844742867920414
1715273984683690200,3.768690185546875,-0.03494127839803696,-0.03419969230890274,0.026237869635224342,-0.037815649062395096,-0.5873108506202698,-0.8084776401519775,0.005482252687215805,-0.009002864360809326,-0.0008941888809204102,0.9458011072241418,0.30921219954453905,0.012206653971027177,0.09848541474220199
1715273984693679400,3.778679443359375,-0.039604201912879944,-0.026279984042048454,0.027096474543213844,-0.038058437407016754,-0.5870163440704346,-0.8086800575256348,0.0037261396646499634,-0.009739875793457031,-0.0031942129135131836,0.945848724026418,0.3090535009198712,0.012079260031568728,0.09854077625317327
1715273984703669200,3.788669189453125,-0.02508385106921196,-0.01607581600546837,0.022454185411334038,-0.038209497928619385,-0.5867593884468079,-0.8088593482971191,-0.001768551766872406,-0.009981513023376465,-0.0026639699935913086,0.9458911912924189,0.3089115183161245,0.011999504484609343,0.09858801600303821
1715273984713658400,3.798658447265625,-0.020116522908210754,-0.015228930860757828,0.02317989617586136,-0.03832261264324188,-0.5866212844848633,-0.8089541792869568,-0.0009687915444374084,-0.007342517375946045,0.0008030533790588379,0.9459096858533971,0.30883659582929085,0.011952304789509413,0.0986512202011193
1715273984723648300,3.808648193359375,-0.018350528553128242,-0.009255725890398026,0.02000540867447853,-0.0384526327252388,-0.5866378545761108,-0.8089359998703003,0.0019993633031845093,-0.0015886425971984863,0.004462242126464844,0.9458976344019449,0.30885303465134734,0.011908145219988096,0.09872074826674694
1715273984733638400,3.818638427734375,-0.027741899713873863,-0.01058144774287939,0.011610325425863266,-0.038528673350811005,-0.5866459608078003,-0.808926522731781,0.0007478930056095123,-0.0010311603546142578,0.003995001316070557,0.9458919553359744,0.3088618372388436,0.011878908881096014,0.09875127814357824
1715273984743627300,3.828627197265625,-0.02633170410990715,-0.011621411889791489,0.00495688384398818,-0.038604769855737686,-0.5865679383277893,-0.8089794516563416,-0.004180893301963806,-0.0059615373611450195,-0.00010246038436889648,0.9459050914200864,0.3088205983982472,0.011836906812258225,0.09875952483226633
1715273984753617400,3.838617431640625,-0.016374411061406136,-0.0049784230068326,0.010810778476297855,-0.038712382316589355,-0.5864874720573425,-0.809032678604126,-0.005828045308589935,-0.009902477264404297,-0.00003403425216674805,0.9459160443750204,0.3087794912195189,0.011785403880065251,0.09878956987796135
1715273984763606300,3.848606201171875,-0.01033308170735836,0.006867051124572754,0.0068525210954248905,-0.03873201087117195,-0.5864475965499878,-0.8090606331825256,-0.00835663452744484,-0.005776703357696533,-0.00005179643630981445,0.9459192658260448,0.30875684061257547,0.011785542493910034,0.09882915463310223
1715273984773596200,3.85859619140625,-0.002155579626560211,0.017896533012390137,0.002024476882070303,-0.03863828256726265,-0.5864692330360413,-0.8090494275093079,-0.01582035794854164,0.0028356313705444336,-0.0006428956985473633,0.9459122391542242,0.3087635046243173,0.011848500360096275,0.09886784443975821
1715273984783585300,3.868585205078125,0.005011306144297123,0.012844515964388847,0.0028312818612903357,-0.03853914514183998,-0.5865417718887329,-0.8090015649795532,-0.017933659255504608,0.003640592098236084,-0.0025370121002197266,0.94589562013696,0.30879961781357046,0.0119172172367622,0.09890561240845756
1715273984793575200,3.8785751953125,0.009153054095804691,0.014262649230659008,0.0025825423654168844,-0.038434043526649475,-0.5866509079933167,-0.8089274168014526,-0.013522151857614517,0.005275607109069824,0.0005779266357421875,0.9458736432871014,0.30885694788988083,0.011986513697997582,0.09892848504162188
1715273984803565300,3.8885654296875,0.018320772796869278,0.020344510674476624,-0.007222617045044899,-0.038258861750364304,-0.58680260181427,-0.8088257312774658,-0.010508246719837189,0.007288873195648193,0.002810835838317871,0.9458448932766813,0.3089350912739206,0.012093525737521931,0.0989464473750922
1715273984813554200,3.89855419921875,0.02893320471048355,0.02123427204787731,-0.0019841797184199095,-0.03805893659591675,-0.5870180726051331,-0.8086787462234497,-0.007931075990200043,0.0074738264083862305,0.002190828323364258,0.9458054067860235,0.30904926705305863,0.012213708733946692,0.09895270168500987
1715273984823544300,3.90854443359375,0.024998435750603676,0.01307301502674818,-0.003169952193275094,-0.03793775662779808,-0.5872907638549805,-0.8084864616394043,-0.00692310556769371,0.009562313556671143,0.006118357181549072,0.9457525715619797,0.309201350872221,0.012300586391836931,0.09897171920281925
1715273984833533200,3.918533203125,0.010233072564005852,0.006779433228075504,-0.0032027089037001133,-0.03787784278392792,-0.5875070691108704,-0.808332085609436,-0.005701281130313873,0.011136651039123535,0.008588552474975586,0.9457111149561049,0.3093242250976088,0.012347937875016101,0.09897868000942274
1715273984843523300,3.9285234375,-0.0010367855429649353,0.008476399816572666,-0.002351829083636403,-0.03784782811999321,-0.5875781178474426,-0.8082818388938904,-0.0044800713658332825,0.0093461275100708,0.012795507907867432,0.9456978245737242,0.3093640414442743,0.01236803055435562,0.09897832287673239
1715273984853512200,3.93851220703125,-0.015713732689619064,0.006193271838128567,0.01455551479011774,-0.03794455900788307,-0.587475597858429,-0.8083518147468567,-0.004825841635465622,0.003964126110076904,0.01605457067489624,0.9457099536266087,0.30930898304073906,0.012330739165877007,0.09903877182573662
1715273984863502300,3.94850244140625,-0.021593939512968063,0.007174646481871605,0.0168758612126112,-0.038119763135910034,-0.5872663855552673,-0.8084956407546997,-0.006130747497081757,0.005646944046020508,0.016976535320281982,0.9457360284501427,0.30919540715310906,0.012263302016075091,0.09915324788868209
1715273984873492200,3.9584921875,-0.02916823700070381,0.00633282121270895,0.020028244704008102,-0.03826484456658363,-0.5870068073272705,-0.8086772561073303,-0.006321355700492859,0.011262059211730957,0.018363654613494873,0.9457719344330159,0.3090506902921046,0.012208645805680384,0.09926855744491934
1715273984883481300,3.9684814453125,-0.02712782844901085,-0.0015328251756727695,0.02034136652946472,-0.03844335675239563,-0.5867274403572083,-0.8088714480400085,-0.004983179271221161,0.015514492988586426,0.015628159046173096,0.945811118507277,0.3088964305121381,0.012135253461130228,0.09938391138166561
1715273984893471200,3.97847119140625,-0.021087778732180595,-0.016967175528407097,0.028134839609265327,-0.038737885653972626,-0.5864880084991455,-0.8090310096740723,0.00034675002098083496,0.013276159763336182,0.013483643531799316,0.9458410614655224,0.30877240964417546,0.012003967106712575,0.09949978301515869
1715273984903460400,3.98846044921875,-0.015742387622594833,-0.01950623281300068,0.030465373769402504,-0.03910021111369133,-0.5863068699836731,-0.809144914150238,0.0037760958075523376,0.01048576831817627,0.013734877109527588,0.9458581529673394,0.3086863672275129,0.011843646815081174,0.09962382301432654
1715273984913450200,3.9984501953125,-0.012403583154082298,-0.01986788958311081,0.0322028212249279,-0.03947347402572632,-0.5861572623252869,-0.809235155582428,0.006590761244297028,0.009405374526977539,0.01670902967453003,0.9458696690893221,0.308619572923991,0.01167760993022143,0.09974167652561831
1715273984923440000,4.008440185546875,-0.024998683482408524,-0.026755889877676964,0.038934022188186646,-0.03987892344594002,-0.5859997272491455,-0.8093293905258179,0.009605463594198227,0.0032510757446289062,0.019946575164794922,0.9458812676725622,0.30855001241431496,0.011496948145614916,0.09986779317904595
1715273984933429200,4.01842919921875,-0.04086979478597641,-0.03758270666003227,0.04372638091444969,-0.04041359946131706,-0.5857668519020081,-0.8094714283943176,0.011604983359575272,-0.0057097673416137695,0.022163748741149902,0.9459019603843115,0.30844389022359864,0.011254597178436885,0.10002644258000572
1715273984943419100,4.028419189453125,-0.06873268634080887,-0.044211577624082565,0.03578736633062363,-0.040998443961143494,-0.5853444337844849,-0.8097475171089172,0.014234505593776703,-0.007841169834136963,0.023645341396331787,0.9459609769685514,0.30823041906609366,0.010965323270212907,0.10015880514442493
1715273984953408300,4.038408203125,-0.08239257335662842,-0.052636224776506424,0.029222674667835236,-0.04157401621341705,-0.5847341418266296,-0.8101590275764465,0.013238422572612762,-0.010755538940429688,0.02021157741546631,0.9460606739656461,0.30790743369839635,0.010653604301026817,0.10024429774415408
1715273984963398100,4.048398193359375,-0.09279493242502213,-0.0634627714753151,0.03525193780660629,-0.04223722219467163,-0.5840216279029846,-0.8106385469436646,0.01408473402261734,-0.017266392707824707,0.0164339542388916,0.9461798665367099,0.30753040120538977,0.010284942686464568,0.10031534081753646
1715273984973387300,4.05838720703125,-0.09851434081792831,-0.07358518242835999,0.04034337028861046,-0.04302016645669937,-0.5832288265228271,-0.8111679553985596,0.01634778082370758,-0.019859731197357178,0.012599349021911621,0.9463106181165193,0.3071138618244134,0.009853410901764104,0.1004007778054235
1715273984983377200,4.068377197265625,-0.09726137667894363,-0.06886020302772522,0.03801536560058594,-0.043795183300971985,-0.5824330449104309,-0.8116980791091919,0.013918451964855194,-0.017771601676940918,0.011893510818481445,0.9464426042571191,0.30669555991551767,0.00942281751214397,0.10047666854440757
1715273984993367300,4.0783671875,-0.08900211751461029,-0.06763141602277756,0.027799483388662338,-0.04448973014950752,-0.5816973447799683,-0.8121877312660217,0.007914397865533829,-0.015516519546508789,0.01020115613937378,0.9465665989249833,0.30630802613451147,0.009029772097026934,0.10052673702778446
1715273985003356200,4.088356201171875,-0.07570766657590866,-0.05971463769674301,0.02901627868413925,-0.04509839043021202,-0.5811148881912231,-0.8125710487365723,0.00423533096909523,-0.014069676399230957,0.008356690406799316,0.9466647563473218,0.30600497783112485,0.00868474703261207,0.10055633541623772
1715273985013346300,4.09834619140625,-0.07027268409729004,-0.05659234896302223,0.02516055479645729,-0.04564892128109932,-0.5806992650032043,-0.8128374218940735,0.004312843084335327,-0.01292884349822998,0.007814288139343262,0.9467321669493033,0.3057958073322927,0.008380028888780892,0.10058380028807162
1715273985023335200,4.108335205078125,-0.07190142571926117,-0.04625262692570686,0.015644416213035583,-0.046079277992248535,-0.5803381204605103,-0.8130709528923035,0.0013404861092567444,-0.011275827884674072,0.005026638507843018,0.9467951671997221,0.30561158355653456,0.008128485724790467,0.10057095985751381
1715273985033325300,4.1183251953125,-0.0771784782409668,-0.03941123187541962,0.00780060701072216,-0.04638048633933067,-0.5799514055252075,-0.8133297562599182,-0.0013185106217861176,-0.010884344577789307,0.0020810365676879883,0.9468671435214424,0.3054048949033459,0.007935836937205908,0.10053678342178454
1715273985043315200,4.128315185546875,-0.0676489919424057,-0.03100443258881569,0.010556645691394806,-0.04659735783934593,-0.5796159505844116,-0.813556432723999,-0.0016967356204986572,-0.011784374713897705,-0.0023308992385864258,0.9469295361728943,0.305222925688272,0.0077938591612643215,0.10051313684586521
1715273985053304300,4.13830419921875,-0.06114688888192177,-0.02269483543932438,0.011379828676581383,-0.046740300953388214,-0.579329788684845,-0.8137520551681519,-0.0023472458124160767,-0.009934306144714355,-0.007292747497558594,0.9469830233308169,0.30506517151665613,0.007695345370767881,0.10049495670014236
1715273985063294200,4.148294189453125,-0.05140525475144386,-0.008327880874276161,0.004424251150339842,-0.04680515080690384,-0.5790780186653137,-0.8139274716377258,-0.003564130514860153,-0.0018546581268310547,-0.00916200876235962,0.9470294608664767,0.3049226398142253,0.007645239128314001,0.1004938221057328
1715273985073283000,4.158282958984375,-0.03476422652602196,-0.002869731979444623,0.003933697007596493,-0.04680946096777916,-0.5789139866828918,-0.8140439391136169,-0.004765268415212631,0.004908621311187744,-0.010678231716156006,0.9470611501252948,0.3048275189123255,0.007629800225439506,0.10048508185910383
1715273985083273200,4.168273193359375,-0.016965577378869057,0.0026171787176281214,0.008937510661780834,-0.0468018501996994,-0.5788553953170776,-0.8140860199928284,-0.005078054964542389,0.006803274154663086,-0.01295548677444458,0.9470696826735819,0.30479279201890114,0.0076380398739435695,0.10050986343210708
1715273985093262000,4.178261962890625,-0.005823445040732622,0.008353627286851406,0.013836395926773548,-0.0467870831489563,-0.5789094567298889,-0.8140485286712646,-0.003490649163722992,0.008779823780059814,-0.011192500591278076,0.9470531291130371,0.30482278249088196,0.007669513497926443,0.10057312038005277
1715273985103252200,4.188252197265625,-0.0062096030451357365,0.022713124752044678,0.009852040559053421,-0.04672083631157875,-0.5789677500724792,-0.8140107989311218,-0.0035111233592033386,0.011661112308502197,-0.010894536972045898,0.947034966865972,0.30485212669189354,0.007732382237847839,0.10064963234104864
1715273985113242000,4.1982421875,-0.017793554812669754,0.029983289539813995,0.012427050620317459,-0.04658091440796852,-0.5789520740509033,-0.8140299320220947,-0.006336584687232971,0.009860098361968994,-0.007732033729553223,0.9470298320918884,0.30483378794754507,0.007835177918030251,0.10074541003107844
1715273985123231200,4.208231201171875,-0.0304624792188406,0.03231435641646385,0.013540252111852169,-0.04641218110918999,-0.5788261294364929,-0.8141291737556458,-0.008122749626636505,0.003401815891265869,-0.006412088871002197,0.9470447383950579,0.30474944560225736,0.007949307266371542,0.10085150660165769
1715273985133221000,4.21822119140625,-0.034002885222435,0.03414687514305115,0.012721063569188118,-0.046256355941295624,-0.5786006450653076,-0.8142983317375183,-0.006325453519821167,0.00012445449829101562,-0.004732370376586914,0.9470771888990445,0.30460792774726275,0.008053201714485233,0.10096645061854742
1715273985143210200,4.228210205078125,-0.03564365953207016,0.03482065349817276,0.01676800288259983,-0.04607443884015083,-0.5782836079597473,-0.8145337700843811,-0.005012005567550659,-0.0016115307807922363,-0.001811385154724121,0.9471264247220839,0.3044116205544961,0.008166523442700427,0.1010866474922035
1715273985153200000,4.2382001953125,-0.025681039318442345,0.030508730560541153,0.019568582996726036,-0.04594062641263008,-0.57794588804245,-0.8147810101509094,-0.0022466517984867096,-0.00011831521987915039,-0.0018387436866760254,0.9471763892346177,0.3042059198484074,0.00826102075763023,0.10123063009589026
1715273985163190300,4.248190185546875,-0.022690095007419586,0.03488750010728836,0.02249346673488617,-0.045821696519851685,-0.5776624083518982,-0.8149886727333069,-0.0014958344399929047,0.002207517623901367,-0.0023940205574035645,0.9472140652624857,0.3040326116743589,0.008356173435081264,0.101390219324328
1715273985173179100,4.25817919921875,-0.015953898429870605,0.03144243732094765,0.017602037638425827,-0.04567988961935043,-0.5773932337760925,-0.8151873350143433,-0.001454528421163559,0.0047765374183654785,-0.0002269148826599121,0.9472502251172973,0.30386629088684636,0.008461676345608878,0.10154226174760823
1715273985183169300,4.268169189453125,-0.01982261799275875,0.021256376057863235,0.016243694350123405,-0.045585669577121735,-0.5771429538726807,-0.8153698444366455,0.0011062771081924438,0.004541456699371338,-0.0001360177993774414,0.9472838347603081,0.3037139567282648,0.008538305911597197,0.1016780205971235
1715273985193158100,4.278158203125,-0.024734819307923317,0.013035465031862259,0.01862375997006893,-0.04557447507977486,-0.576879620552063,-0.8155568242073059,0.004268907010555267,-0.0006352066993713379,-0.0014139413833618164,0.9473201920948803,0.30355924707187915,0.008566068641394432,0.10179906171916583
1715273985203148300,4.288148193359375,-0.03185983747243881,0.012204558588564396,0.020923733711242676,-0.04564737528562546,-0.5766043066978455,-0.8157474398612976,0.006233900785446167,-0.004893124103546143,-0.0002314448356628418,0.9473570050555912,0.3034026429447407,0.008550724632378853,0.10192487328414616
1715273985213137200,4.29813720703125,-0.030569005757570267,0.009536603465676308,0.018223553895950317,-0.045703839510679245,-0.5763478875160217,-0.8159254789352417,0.005176469683647156,-0.006522774696350098,0.00188446044921875,0.9473921593472184,0.30325621034621386,0.008540095093328016,0.10203497149215691
1715273985223127300,4.308127197265625,-0.027652470394968987,0.0062758298590779305,0.023336689919233322,-0.045784030109643936,-0.5761224031448364,-0.8160801529884338,0.0022201649844646454,-0.0060616135597229,0.001795053482055664,0.9474206843660813,0.3031292213089845,0.008520009135334343,0.10214801302786358
1715273985233117400,4.318117431640625,-0.02478477917611599,0.001277875155210495,0.022769968956708908,-0.0458984337747097,-0.5759302973747253,-0.8162093162536621,0.0024871565401554108,-0.003751218318939209,0.0016647577285766602,0.9474422201019783,0.3030236656697382,0.008485325808437926,0.10226453273700149
1715273985243106300,4.328106201171875,-0.012761140242218971,-0.0035632189828902483,0.0261306781321764,-0.04604056105017662,-0.5757558345794678,-0.8163244128227234,0.0030412673950195312,-0.0005077719688415527,0.0028632283210754395,0.9474600000524659,0.3029300305504511,0.008437358824533201,0.10238119965627582
1715273985253096400,4.338096435546875,-0.008990902453660965,-0.006683112122118473,0.02198653481900692,-0.046207789331674576,-0.5756515264511108,-0.8163885474205017,0.0013316646218299866,-0.0018480420112609863,0.0014777183532714844,0.9474651147539553,0.30287873330067305,0.008378609510468175,0.10249097054627775
1715273985263085300,4.348085205078125,0.003376284847036004,-0.007267143577337265,0.028297359123826027,-0.04639200493693352,-0.5756055116653442,-0.8164105415344238,0.0011191554367542267,-0.001955091953277588,-0.001490950584411621,0.9474591494933707,0.30286235969601755,0.008314288755996869,0.10259925418250969
1715273985273075500,4.358075439453125,0.0024079594295471907,-0.0012199035845696926,0.023421645164489746,-0.04653555527329445,-0.5756316184997559,-0.8163838982582092,-0.0018043145537376404,-0.0006167292594909668,-0.0007699131965637207,0.9474397475707231,0.30288532169653704,0.008277638652456905,0.10271326722096144
1715273985283065300,4.3680654296875,0.014470428228378296,0.0034629986621439457,0.026171425357460976,-0.04660855233669281,-0.5757206678390503,-0.8163169622421265,-0.004645742475986481,-0.0007107257843017578,-0.0020728707313537598,0.9474102358523486,0.3029405347670954,0.008280152924543755,0.10282208689686563
1715273985293054500,4.378054443359375,0.017298439517617226,0.012087645940482616,0.028580520302057266,-0.04666193202137947,-0.5758983492851257,-0.816188633441925,-0.00752205029129982,-0.0017080307006835938,-0.0024910569190979004,0.9473623302547896,0.30304571485944487,0.008305462108500299,0.10295228265516533
1715273985303044400,4.38804443359375,0.011302491649985313,0.015919934958219528,0.023170175030827522,-0.046681854873895645,-0.5760509967803955,-0.8160797357559204,-0.007792048156261444,-0.0033406615257263184,-0.0069029927253723145,0.9473181915699663,0.30313432828589293,0.008350067453371374,0.1030932315612559
1715273985313033200,4.398033203125,0.00631865207105875,0.024264417588710785,0.016753554344177246,-0.04661748558282852,-0.5761479735374451,-0.8160149455070496,-0.009122893214225769,-0.002618074417114258,-0.006204843521118164,0.9472883435930816,0.30318560219931134,0.008427466105023288,0.10321064780181473
1715273985323023400,4.4080234375,-0.004623796790838242,0.027469530701637268,0.01329038105905056,-0.04645344614982605,-0.5761558413505554,-0.8160187005996704,-0.009180121123790741,-0.006211280822753906,-0.003072977066040039,0.9472783603123434,0.30317917604481254,0.008545565789723573,0.10331103078616567
1715273985333012200,4.41801220703125,-0.012536315247416496,0.025895603001117706,0.013332192786037922,-0.04629587382078171,-0.5760916471481323,-0.8160730004310608,-0.004668503999710083,-0.009189903736114502,-0.0004552006721496582,0.9472819766672161,0.3031313035709627,0.00865491289346903,0.1034092465072488
1715273985343002400,4.42800244140625,-0.0162339024245739,0.027654089033603668,0.005917752161622047,-0.04613061249256134,-0.575975239276886,-0.8161645531654358,-0.002010893076658249,-0.010908544063568115,0.0011011958122253418,0.947298036401539,0.3030528547980364,0.008757291763341949,0.10348383193678973
1715273985352992300,4.4379921875,-0.01136697456240654,0.02970951609313488,0.007253593765199184,-0.04595176875591278,-0.575851559638977,-0.816261887550354,-0.0038529448211193085,-0.010223448276519775,0.0020682811737060547,0.9473153392062065,0.3029693671159588,0.008866881411978928,0.10356036006545788
1715273985362981400,4.4479814453125,-0.005714201834052801,0.03861832246184349,0.0028165674302726984,-0.04572919383645058,-0.5757747292518616,-0.8163285851478577,-0.008592117577791214,-0.006882309913635254,0.0015093684196472168,0.9473240997747586,0.3029102862042117,0.009003629674978066,0.10364108962758495
1715273985372971300,4.45797119140625,0.006902789697051048,0.04326234385371208,0.00030946778133511543,-0.04545420780777931,-0.5757780075073242,-0.8163416385650635,-0.008439861238002777,-0.0034000277519226074,0.004864037036895752,0.9473183006474266,0.3028944183392608,0.009174052434718638,0.10372542016106243
1715273985382960400,4.46796044921875,0.020716393366456032,0.04127003252506256,-0.005237963050603867,-0.045157551765441895,-0.5758819580078125,-0.816284716129303,-0.005364321172237396,-0.0029603242874145508,0.005600631237030029,0.9472962606293694,0.302935810517177,0.009355806183256137,0.10378930092434113
1715273985392950000,4.477949951171875,0.025233646854758263,0.035812947899103165,-0.009794099256396294,-0.04485302045941353,-0.5760497450828552,-0.8161831498146057,-0.002830713987350464,-0.0005342364311218262,0.007284343242645264,0.9472673857444257,0.3030141547753454,0.009531570965191392,0.10380853676846483
1715273985402940200,4.487940185546875,0.022188162431120872,0.038042545318603516,-0.0175019521266222,-0.044526707381010056,-0.5762751698493958,-0.816041886806488,-0.0013564936816692352,0.0024529695510864258,0.009599745273590088,0.9472309426789491,0.3031248956381231,0.009713776563793656,0.10380058876785467
1715273985412929000,4.497928955078125,0.012886539101600647,0.040810637176036835,-0.02117258682847023,-0.04411737993359566,-0.5764802694320679,-0.8159192204475403,-0.0021015144884586334,0.001696765422821045,0.01129293441772461,0.9472000069458639,0.30321882771876396,0.009936212656319663,0.10378732314339044
1715273985422919000,4.5079189453125,0.0028291121125221252,0.04059572145342827,-0.023623762652277946,-0.04369497671723366,-0.5766276121139526,-0.8158378601074219,-0.003561515361070633,0.0005776286125183105,0.011470913887023926,0.9471825242828291,0.3032786845974787,0.01015437792363992,0.1037512363887699
1715273985432908000,4.517907958984375,-0.01434507966041565,0.03939516842365265,-0.02768694795668125,-0.043267954140901566,-0.5766634941101074,-0.8158352375030518,-0.005972184240818024,0.0024140477180480957,0.010186553001403809,0.9471879589469744,0.30327383048288464,0.010361278719766876,0.1036952465477267
1715273985442898000,4.52789794921875,0.03149537742137909,-0.037774983793497086,-0.036545950919389725,-0.04299778863787651,-0.5766595602035522,-0.8158522844314575,-0.00824124738574028,-0.0007789731025695801,0.00702977180480957,0.9472044804237421,0.30325616566086716,0.010466668840179985,0.10358559423722903
1715273985452887000,4.537886962890625,0.9421318769454956,0.49718135595321655,0.2519848942756653,-0.042974766343832016,-0.5816558599472046,-0.8122990131378174,-0.008447378873825073,0.0016233325004577637,0.005856871604919434,0.9462149825900955,0.3061542216321906,0.010958167179830695,0.10405267101149372
1715273985462877000,4.547876953125,0.12257282435894012,0.2083578258752823,0.19401641190052032,-0.04144085571169853,-0.585777759552002,-0.8094115853309631,-0.03340353071689606,0.06084471940994263,0.032235801219940186,0.9452745176829013,0.30844222551107847,0.012553663273093228,0.10565053574153017
1715273985472867300,4.557867431640625,0.5011305212974548,0.08051411062479019,0.1701694130897522,-0.041202008724212646,-0.5879431366920471,-0.8078522682189941,-0.18017253279685974,0.1655644178390503,0.01825582981109619,0.9447431418382116,0.3096778339171633,0.013172005540956459,0.10670820700755149
1715273985482856000,4.56785595703125,0.1302632838487625,-0.04029087349772453,0.07889135926961899,-0.04187525063753128,-0.5908332467079163,-0.805706262588501,0.015096057206392288,0.009427487850189209,0.08500325679779053,0.9441082893674193,0.3114037269153906,0.013213665526508944,0.10729722633571359
1715273985492846300,4.577846435546875,-0.0906352698802948,-0.0220468882471323,-0.03934234008193016,-0.04222980514168739,-0.590728223323822,-0.8057647943496704,0.1154109314084053,-0.1046912670135498,0.008722007274627686,0.9441229164149578,0.31136472470572374,0.013023915742860387,0.1073052859295895
1715273985502835000,4.5878349609375,-0.2666381299495697,-0.05585598573088646,-0.09966379404067993,-0.04202874004840851,-0.5893900394439697,-0.8067546486854553,0.04108267277479172,-0.08861923217773438,0.06668823957443237,0.9444301640187949,0.3105738733056842,0.01290534273460563,0.10690714081121115
1715273985512825300,4.597825439453125,-0.40698885917663574,-0.18331806361675262,-0.12851648032665253,-0.04229132831096649,-0.5866561532020569,-0.8087311387062073,0.0200897715985775,-0.10032522678375244,0.02822887897491455,0.9450313239371134,0.30900131743495485,0.012353799267247952,0.10621440750593973
1715273985522815200,4.607815185546875,-0.48301103711128235,-0.32182028889656067,-0.194790318608284,-0.04338835924863815,-0.5831232070922852,-0.8112242817878723,0.031150788068771362,-0.07211995124816895,0.029058873653411865,0.9458173757873349,0.3070228161590902,0.01117323288071612,0.10508019577646414
1715273985532804400,4.617804443359375,-0.5541658997535706,-0.40439799427986145,-0.29335975646972656,-0.04495956003665924,-0.5790265798568726,-0.8140681385993958,0.05016278475522995,-0.04618722200393677,0.016125082969665527,0.9467534266185338,0.30475387237704443,0.009540583186813828,0.10340265646186814
1715273985542794200,4.627794189453125,-0.5602325797080994,-0.4337838590145111,-0.41176822781562805,-0.046417586505413055,-0.5745519995689392,-0.8171508312225342,0.04827914014458656,-0.012179136276245117,-0.0017119646072387695,0.947817137174651,0.30226565699847624,0.007750193306107093,0.10108511483937699
1715273985552783400,4.637783447265625,-0.16654148697853088,0.09534098953008652,-0.21993382275104523,-0.046335384249687195,-0.5714665055274963,-0.8193162083625793,0.010553505271673203,0.03573024272918701,-0.014500200748443604,0.948608012589925,0.3004891913497756,0.006937364087440169,0.09900034023250531
1715273985562773200,4.647773193359375,0.18168583512306213,0.46412861347198486,0.07616754621267319,-0.04361582174897194,-0.5718656182289124,-0.8191870450973511,-0.06533195078372955,0.09159505367279053,-0.0340384840965271,0.9485602211938243,0.30055877249524576,0.008420108912517814,0.09913166163330149
