time,seconds_elapsed,rotationRateX,rotationRateY,rotationRateZ,gravityX,gravityY,gravityZ,accelerationX,accelerationY,accelerationZ,quaternionW,quaternionX,quaternionY,quaternionZ
1715694056793144300,0.049144287109375,-0.039975445717573166,-0.04461777210235596,-0.07203911244869232,-0.09511179476976395,-0.4990931749343872,-0.8613128662109375,-0.0009270310401916504,0.010232031345367432,0.015411376953125,0.9647054607865475,0.258676447679808,-0.049295770626108765,5.551115123125783e-17
1715694056803134200,0.05913427734375,-0.0375676304101944,-0.048807721585035324,-0.07418395578861237,-0.0951591432094574,-0.4988299012184143,-0.8614600896835327,0.0026145875453948975,0.0034838318824768066,0.010691046714782715,0.9647434909968113,0.25850795510093083,-0.04943266566527109,-0.0004265710171626469
1715694056813123300,0.069123291015625,-0.03041703999042511,-0.053758274763822556,-0.07196979969739914,-0.09521626681089401,-0.49862608313560486,-0.8615717887878418,0.005067348480224609,0.005568832159042358,0.007674694061279297,0.9647721213620702,0.25837274782670716,-0.0495746070689593,-0.0008517369690992371
1715694056823112200,0.0791123046875,-0.03107212297618389,-0.06713799387216568,-0.07190369069576263,-0.09545228630304337,-0.49859365820884705,-0.8615643978118896,0.007287010550498962,0.011212646961212158,0.0063550472259521484,0.96476977048862,0.25833449532913166,-0.04981040722330733,-0.0012752108959215303
1715694056833102300,0.089102294921875,-0.023045090958476067,-0.0521145723760128,-0.09131014347076416,-0.09551826119422913,-0.49860748648643494,-0.8615490794181824,0.005903393030166626,0.009776890277862549,0.004890143871307373,0.9647649798994857,0.25831720547813164,-0.04997672555705568,-0.0017678471410415564
1715694056843091200,0.09909130859375,-0.023855701088905334,-0.045216452330350876,-0.08099891990423203,-0.09539089351892471,-0.4985955059528351,-0.8615701198577881,0.00043545663356781006,0.011763840913772583,0.006406545639038086,0.9647693628109628,0.25828351806720756,-0.0500455681641635,-0.0022726342604312832
1715694056853080300,0.109080322265625,-0.036385610699653625,-0.04734484851360321,-0.07491439580917358,-0.09533214569091797,-0.49842748045921326,-0.861673891544342,-0.007481567561626434,0.013838857412338257,0.004587709903717041,0.9647951196725959,0.25816642904689197,-0.050131449692790986,-0.002713392936942116
1715694056863070200,0.1190703125,-0.05048784986138344,-0.0585748665034771,-0.09090986847877502,-0.09537815302610397,-0.4981147348880768,-0.8618496060371399,-0.00984644889831543,0.0042639970779418945,0.0036190152168273926,0.9648392202609224,0.25796736426422084,-0.05027955948544342,-0.0031888269624947285
1715694056873063400,0.1290634765625,-0.06354772299528122,-0.06307028234004974,-0.10341420769691467,-0.09543510526418686,-0.49771347641944885,-0.8620750308036804,-0.007134482264518738,-0.0007911324501037598,0.0026085376739501953,0.9649027904738932,0.257908617181637,-0.04945322102290527,0
1715694056883053300,0.13905322265625,-0.05904591456055641,-0.05009908974170685,-0.11055082082748413,-0.09539005160331726,-0.4973311424255371,-0.8623006343841553,-0.009269975125789642,-0.001478642225265503,0.0013540387153625488,0.9649610435508007,0.25766390113914733,-0.04958813916452892,-0.0006038788946394757
1715694056893042400,0.14904248046875,-0.059965502470731735,-0.0309648085385561,-0.1281881332397461,-0.0951153114438057,-0.4969436526298523,-0.8625543713569641,-0.01670107990503311,-0.0007217228412628174,0.0027216672897338867,0.9650261768976431,0.2574129681003926,-0.049612237786196514,-0.0012410138407228932
1715694056903031300,0.15903125,-0.06869672983884811,-0.027822544798254967,-0.15150344371795654,-0.0946350172162056,-0.49648556113243103,-0.8628709316253662,-0.02281186729669571,-0.000935673713684082,0.004182636737823486,0.9651069830402763,0.25711679604255816,-0.0495527960376439,-0.0019689186426646854
1715694056913021400,0.169021484375,-0.08780917525291443,-0.026841701939702034,-0.17985917627811432,-0.09403856843709946,-0.49591970443725586,-0.8632615208625793,-0.027314573526382446,-0.0035614967346191406,0.0032608509063720703,0.9652061108997262,0.2567539055470791,-0.04946397458440119,-0.0028184500295253545
1715694056923010300,0.17901025390625,-0.11917588114738464,-0.01725592091679573,-0.23100805282592773,-0.09324327856302261,-0.49518415331840515,-0.8637698292732239,-0.03361828625202179,-0.012277364730834961,-0.006408393383026123,0.9653341679323207,0.2562870511469095,-0.04931566540894343,-0.0038412291304550927
1715694056932999400,0.18899951171875,-0.16085143387317657,-0.00512921717017889,-0.32891198992729187,-0.09209009259939194,-0.4941632151603699,-0.8644779324531555,-0.04708530753850937,-0.02895382046699524,-0.022637486457824707,0.9655110744621205,0.2556420371359701,-0.04907314945186425,-0.005224578898447407
1715694056942989300,0.1989892578125,-0.21644768118858337,0.05439722537994385,-0.4333009719848633,-0.09013872593641281,-0.492902547121048,-0.8654028177261353,-0.0781656950712204,-0.04770106077194214,-0.050551772117614746,0.9657388114315865,0.2548396600208471,-0.04853174014113304,-0.007061782338707079
1715694056952977200,0.20897705078125,-0.2879231870174408,0.11569254100322723,-0.5317412614822388,-0.08704906702041626,-0.49117961525917053,-0.8666977882385254,-0.12848131358623505,-0.07013019919395447,-0.07109212875366211,0.9660546879473142,0.25376028506131,-0.04750614126621483,-0.009335577504089865
1715694056962966300,0.21896630859375,-0.3828570246696472,0.1636611372232437,-0.6383920907974243,-0.08298671245574951,-0.48879826068878174,-0.8684408068656921,-0.1831112951040268,-0.10280025005340576,-0.07139372825622559,0.9664756646185517,0.2523020734609078,-0.046078715236386666,-0.01205143059173669
1715694056972956200,0.2289560546875,-0.5124986171722412,0.2107602059841156,-0.7820656299591064,-0.07795099914073944,-0.4855038821697235,-0.8707523345947266,-0.23287053406238556,-0.1345980167388916,-0.05841636657714844,0.9670269837228935,0.2503274679091652,-0.04427189762852049,-0.015326403859078352
1715694056982945300,0.2389453125,-0.6734143495559692,0.2884134352207184,-0.9585371613502502,-0.07160142809152603,-0.48098430037498474,-0.87380051612854,-0.27162978053092957,-0.14760151505470276,-0.02521681785583496,0.9677425289240956,0.24766952367527587,-0.04194706966322874,-0.01935341054503137
1715694056992934100,0.24893408203125,-0.8311871886253357,0.36388131976127625,-1.0820122957229614,-0.06385035067796707,-0.47510918974876404,-0.8776071667671204,-0.3059311509132385,-0.14163577556610107,0.023145556449890137,0.9686200521857818,0.24428119873087645,-0.039026900225419395,-0.024058597741752563
1715694057002924300,0.25892431640625,-0.9514017701148987,0.4128592312335968,-1.153381109237671,-0.055184975266456604,-0.4678971469402313,-0.882058322429657,-0.3415130376815796,-0.1415846049785614,0.08002585172653198,0.9696282144762443,0.2402036873913666,-0.035679700304230844,-0.029156743448728817
1715694057012913200,0.2689130859375,-1.0009697675704956,0.4661485552787781,-1.249582290649414,-0.04576018080115318,-0.45984652638435364,-0.8868185877799988,-0.3626565635204315,-0.14730069041252136,0.12372654676437378,0.9706754975368856,0.23572892653684135,-0.03197794440810957,-0.03461652756479522
1715694057022903300,0.2789033203125,-1.0139036178588867,0.4713004529476166,-1.33896803855896,-0.03568480908870697,-0.45142248272895813,-0.8915964961051941,-0.35835814476013184,-0.13095968961715698,0.1596476435661316,0.9716778232436336,0.23112324824573405,-0.027996307095409845,-0.04050213702812311
1715694057032892200,0.28889208984375,-1.0044288635253906,0.4184795618057251,-1.3772022724151611,-0.025635311380028725,-0.44283902645111084,-0.8962345719337463,-0.3401941657066345,-0.10656893253326416,0.18137556314468384,0.9725917341024847,0.22650358660167103,-0.024058948962113372,-0.046718371838133266
1715694057042881300,0.29888134765625,-1.000196099281311,0.33063921332359314,-1.425973653793335,-0.01615011692047119,-0.43417662382125854,-0.9006829857826233,-0.3038114309310913,-0.08967286348342896,0.1945672631263733,0.9734010420956167,0.22190372279278275,-0.02042680214598941,-0.05321412401633341
1715694057052871200,0.30887109375,-0.9769957065582275,0.20552308857440948,-1.4758775234222412,-0.007547308690845966,-0.4254155158996582,-0.9049666523933411,-0.2619076371192932,-0.0884699821472168,0.20255881547927856,0.9741025355297822,0.21729779241383682,-0.017272414262081814,-0.06006249818148768
1715694059220562200,2.476562255859375,-0.8050439953804016,-0.6021047234535217,-0.06606750935316086,-0.08916351199150085,-0.8323357701301575,-0.5470530390739441,0.045645445585250854,-0.47229063510894775,0.3629862070083618,0.7774757366443391,0.44198996426391024,0.17640393987475736,0.4111666620739304
1715694059230552300,2.48655224609375,-0.7872405052185059,-0.7864956259727478,-0.14941005408763885,-0.09241737425327301,-0.8280069231987,-0.5530493855476379,-0.019139647483825684,-0.5199086666107178,0.44799256324768066,0.7801120597008302,0.4403030107488915,0.17207137969123568,0.40981696542504803
1715694059240541200,2.496541259765625,-0.7071313858032227,-0.7097156047821045,-0.23897197842597961,-0.09508015215396881,-0.8240379691123962,-0.5584989190101624,0.3608729839324951,-0.3823370337486267,0.44813209772109985,0.7828213848281016,0.4387969674806709,0.1679516803619103,0.40797055633125434
1715694059250530300,2.5065302734375,-0.5156349539756775,-0.6335809230804443,-0.2199077308177948,-0.09699033200740814,-0.8207874894142151,-0.5629392862319946,0.27856990694999695,-0.34077250957489014,0.43504011631011963,0.7852323310511513,0.437568058027015,0.16451308752428126,0.4060537756771917
1715694059260520200,2.516520263671875,-0.20025300979614258,-0.5048602223396301,-0.16832703351974487,-0.09870671480894089,-0.8189512491226196,-0.5653102397918701,0.0646795928478241,-0.3010590076446533,0.4218928813934326,0.7868835278707293,0.43718351055705384,0.1619118720485254,0.4043133755993107
1715694059270509300,2.52650927734375,0.06103292852640152,-0.3908683955669403,-0.21755316853523254,-0.09973853826522827,-0.8188017010688782,-0.5653459429740906,-0.04697473347187042,-0.20013439655303955,0.4013444781303406,0.7877502171409579,0.4377117674696709,0.16042266301841204,0.40264454534830807
1715694059280498200,2.536498291015625,0.17196157574653625,-0.41327038407325745,-0.36825597286224365,-0.09957383573055267,-0.8198121786117554,-0.5639087557792664,-0.05814102292060852,-0.13544899225234985,0.36543768644332886,0.7883753700795674,0.43877323128995516,0.15976128282752447,0.4005230166045767
1715694059290488300,2.54648828125,0.15416792035102844,-0.5931006073951721,-0.48816588521003723,-0.09882758557796478,-0.8212000727653503,-0.5620172619819641,-0.008838452398777008,-0.11672705411911011,0.3217676281929016,0.7892720851580144,0.44009810852392217,0.15907554099170643,0.39756516074620063
1715694059300477200,2.556477294921875,0.09769964218139648,-0.7527003884315491,-0.526252806186676,-0.09845180809497833,-0.8224198222160339,-0.5602970719337463,0.05726834386587143,-0.1273939609527588,0.2731267213821411,0.7905457132378717,0.44154687234122825,0.1577587539740273,0.3939364607077559
1715694059310467300,2.56646728515625,0.022695444524288177,-0.7939341068267822,-0.5214599370956421,-0.09850391000509262,-0.823259174823761,-0.5590539574623108,0.10546189546585083,-0.14759647846221924,0.22131586074829102,0.7920616507093935,0.4428947365196657,0.15593998800140801,0.39008374945186364
1715694059320456200,2.576456298828125,-0.024637926369905472,-0.792164146900177,-0.4759235978126526,-0.09878294914960861,-0.8237327933311462,-0.5583065748214722,0.11713926494121552,-0.16402959823608398,0.17975127696990967,0.7936640959101704,0.4440268319245215,0.15390548020073988,0.3863296453777615
1715694059330445300,2.5864453125,-0.04562390223145485,-0.8213129639625549,-0.40729498863220215,-0.09963782876729965,-0.8239702582359314,-0.5578038692474365,0.09573157876729965,-0.17689937353134155,0.1497686505317688,0.7952064727597088,0.44509428524353256,0.1516216690737155,0.3828165208001958
1715694059340435200,2.596435302734375,-0.03826271370053291,-0.8251543045043945,-0.39336591958999634,-0.1009591743350029,-0.8241232633590698,-0.5573400259017944,0.0726541131734848,-0.16386795043945312,0.12147271633148193,0.796683264331444,0.44619164610147133,0.14914086439459154,0.37942803487889487
1715694059350424300,2.60642431640625,-0.0060395291075110435,-0.7829216718673706,-0.4408399760723114,-0.10201479494571686,-0.8244132995605469,-0.556718647480011,0.060480356216430664,-0.11162173748016357,0.09771901369094849,0.7981142089814599,0.4473082739026065,0.14681953750976207,0.3759960758549295
1715694059360413400,2.616413330078125,0.0035492349416017532,-0.7391869425773621,-0.495184987783432,-0.10236538201570511,-0.8248893022537231,-0.5559486746788025,0.04622827470302582,-0.048416972160339355,0.08008801937103271,0.7995446754548893,0.44838212528466714,0.1448417081399347,0.3724281080300829
1715694059370403300,2.6264033203125,-0.023169195279479027,-0.7101143002510071,-0.5220658779144287,-0.10216550529003143,-0.8253577947616577,-0.555289626121521,0.031288422644138336,-0.009282588958740234,0.06667274236679077,0.8010360739733422,0.44931586728084416,0.14307490803016412,0.3687626636364853
1715694059380392200,2.63639208984375,-0.07219047844409943,-0.6779763102531433,-0.5088074803352356,-0.1017327681183815,-0.825619101524353,-0.5549805760383606,0.023851916193962097,0.002956867218017578,0.0654175877571106,0.8025881900377417,0.4500256251999688,0.14137418881685934,0.3651606274874528
1715694059390381300,2.64638134765625,-0.12788516283035278,-0.6544414162635803,-0.4963092803955078,-0.10126958042383194,-0.8255792260169983,-0.5551247000694275,0.02175600826740265,-0.0033086538314819336,0.07119214534759521,0.8041926599314013,0.45048176829107467,0.13965614218791694,0.3617132747334856
1715694059400371200,2.65637109375,-0.17250509560108185,-0.6203777194023132,-0.48347845673561096,-0.10076270997524261,-0.8252401947975159,-0.5557206869125366,0.01983007788658142,-0.013260722160339355,0.06698167324066162,0.8058513884133858,0.4506825403822166,0.13793074869860678,0.35841867393722227
1715694059410360300,2.6663603515625,-0.18770909309387207,-0.5835115909576416,-0.4724782705307007,-0.10015073418617249,-0.8247036337852478,-0.5566270351409912,0.011542946100234985,-0.011661052703857422,0.04680037498474121,0.8075252476216717,0.45068570799455154,0.13626762637821235,0.3552695666029121
1715694059420350200,2.67635009765625,-0.21001678705215454,-0.5360141396522522,-0.4581157863140106,-0.099394790828228,-0.8240731954574585,-0.5576953291893005,0.003493279218673706,0.0043558478355407715,0.024125993251800537,0.8091733811773368,0.45055710826275375,0.1347242377086611,0.3522587020879967
1715694059430339300,2.68633935546875,-0.24055951833724976,-0.5410892963409424,-0.433698832988739,-0.09872733801603317,-0.8232440948486328,-0.5590367913246155,-0.005505472421646118,0.024461805820465088,-0.002883434295654297,0.8108269797106652,0.45028026998979287,0.13315138591916367,0.34939662549119316
1715694059440328200,2.696328125,-0.2365085780620575,-0.4786810576915741,-0.42603492736816406,-0.09808383136987686,-0.8223095536231995,-0.5605233907699585,-0.014190338551998138,0.03681766986846924,-0.02636009454727173,0.8124568749481015,0.4499087923837759,0.13160690870098904,0.3466632672643195
1715694059450318300,2.706318359375,-0.2122834026813507,-0.36314648389816284,-0.4183216094970703,-0.09692982584238052,-0.8214698433876038,-0.5619534850120544,-0.022027693688869476,0.05438011884689331,-0.03280353546142578,0.8139697696297045,0.4494428689687172,0.13047743827697286,0.3441362956014955
1715694059460307200,2.71630712890625,-0.21061834692955017,-0.3144327402114868,-0.369374543428421,-0.09553355723619461,-0.8206717371940613,-0.5633571147918701,-0.036577045917510986,0.06812357902526855,-0.04195904731750488,0.8153368512391117,0.4488980961614352,0.12966082258729617,0.34191284793783217
1715694059470296000,2.726296142578125,-0.24722856283187866,-0.2874501347541809,-0.334410160779953,-0.09434309601783752,-0.8197234272956848,-0.5649361610412598,-0.041658490896224976,0.05409848690032959,-0.056157588958740234,0.8166382561126486,0.44825473342548805,0.12883951233221755,0.3399558618381523
1715694059480286200,2.7362861328125,-0.2991493344306946,-0.2694476842880249,-0.3131240904331207,-0.0932367593050003,-0.8184720277786255,-0.5669306516647339,-0.02474421262741089,0.03972458839416504,-0.06557667255401611,0.8179814194491705,0.44738839251456564,0.12797770420062465,0.33818884117340275
1715694059490275000,2.746275146484375,-0.3473741114139557,-0.2613239884376526,-0.29364651441574097,-0.09224142134189606,-0.816913902759552,-0.5693356394767761,-0.00643717497587204,0.027012288570404053,-0.06788665056228638,0.8193881613118306,0.4463125808058272,0.1270325582329278,0.3365571418288614
1715694059500264200,2.75626416015625,-0.36539173126220703,-0.2301013469696045,-0.2722358703613281,-0.09133443236351013,-0.8151284456253052,-0.572034478187561,0.0030470862984657288,0.0062754154205322266,-0.07573157548904419,0.8208212255138696,0.4450780507647619,0.12604877592851632,0.33506645889299774
1715694059510254000,2.766254150390625,-0.3589974641799927,-0.19710397720336914,-0.2524339258670807,-0.09039575606584549,-0.8132872581481934,-0.5747976899147034,0.01242334395647049,0.0029998421669006348,-0.07312095165252686,0.822201726480965,0.4437744915427176,0.1251613236119057,0.3337409795188643
1715694059520243200,2.7762431640625,-0.3439519703388214,-0.16878286004066467,-0.22860129177570343,-0.0894836038351059,-0.8114795088768005,-0.5774890184402466,0.0206969752907753,0.010606825351715088,-0.06380730867385864,0.8234937920937113,0.44248037246171007,0.12436477883328209,0.33256938753696386
1715694059530233000,2.786233154296875,-0.3275141417980194,-0.159250870347023,-0.23033422231674194,-0.0885806754231453,-0.8097236156463623,-0.5800871849060059,0.025332987308502197,0.013642072677612305,-0.05968332290649414,0.8247175408733032,0.44121406725043627,0.12363876098245172,0.33148850759655746
1715694059540222200,2.79622216796875,-0.2789117097854614,-0.12672941386699677,-0.24723030626773834,-0.08746832609176636,-0.8081652522087097,-0.582424521446228,0.03362005203962326,0.02210867404937744,-0.05560654401779175,0.8258767007872849,0.44004697248010693,0.12307075090332786,0.33036343195147655
1715694059550211000,2.806211181640625,-0.2381962239742279,-0.10488218069076538,-0.25309616327285767,-0.08607691526412964,-0.8068790435791016,-0.5844115018844604,0.03769129514694214,0.03161060810089111,-0.04731762409210205,0.8269343392322986,0.43901114521382467,0.12273329258766366,0.32921905225180215
1715694059560201200,2.816201171875,-0.2062537968158722,-0.09449025988578796,-0.21391429007053375,-0.08474721014499664,-0.8057812452316284,-0.5861180424690247,0.038848765194416046,0.03144359588623047,-0.051348328590393066,0.8278689244349176,0.43810889039527084,0.12248091509583647,0.32816441754104486
1715694059570190000,2.826190185546875,-0.1945153772830963,-0.0685952752828598,-0.17306672036647797,-0.083649180829525,-0.8047916293144226,-0.5876334309577942,0.0398869588971138,0.024487793445587158,-0.06318438053131104,0.8286702995365861,0.437308152705124,0.12224914888390637,0.3272951345534274
1715694059580179200,2.83617919921875,-0.20673252642154694,-0.060850538313388824,-0.1442922055721283,-0.0827476754784584,-0.8037480711936951,-0.5891873836517334,0.04292222857475281,0.01201540231704712,-0.0583803653717041,0.8294001045404101,0.4364853183903066,0.12201183443736513,0.3266329052420115
1715694059590169000,2.846169189453125,-0.22353839874267578,-0.0756065770983696,-0.1189732626080513,-0.08206862956285477,-0.8025988340377808,-0.5908466577529907,0.04045790433883667,-0.002134382724761963,-0.05295217037200928,0.8301244047880322,0.43562744008792864,0.1216774383682718,0.3260623954077627
1715694059600158200,2.856158203125,-0.22835665941238403,-0.08113609999418259,-0.08517035841941833,-0.08171158283948898,-0.801328718662262,-0.5926174521446228,0.03820875287055969,-0.013521075248718262,-0.0519900918006897,0.8308413839612445,0.434744634601743,0.12119559759737969,0.3255936927570149
1715694059610147300,2.866147216796875,-0.21432872116565704,-0.06504315137863159,-0.05842689797282219,-0.08156373351812363,-0.8000658750534058,-0.5943416357040405,0.041158467531204224,-0.013990461826324463,-0.04725992679595947,0.8314833755322343,0.4338921818990711,0.12069279767309199,0.32527878351315476
1715694059620137200,2.87613720703125,-0.16798608005046844,-0.046597566455602646,-0.06441767513751984,-0.08141592890024185,-0.7989488840103149,-0.5958623886108398,0.03812674432992935,-0.0018322467803955078,-0.045357704162597656,0.8320398322186887,0.4331323460320215,0.12027131991271814,0.32502419905870616
1715694059630126300,2.886126220703125,-0.08350768685340881,-0.013060910627245903,-0.05753660202026367,-0.0810890942811966,-0.7982499003410339,-0.5968429446220398,0.028293676674365997,0.014116108417510986,-0.051518261432647705,0.8324295256174307,0.4326180803038516,0.12008385375865088,0.3247804486496064
1715694059640116200,2.8961162109375,-0.022741012275218964,0.0127754807472229,-0.05013800412416458,-0.08064377307891846,-0.7979758977890015,-0.5972695350646973,0.018357403576374054,0.030992984771728516,-0.05382293462753296,0.8326328896756511,0.43236101767772916,0.12012150319792878,0.32458754334506645
1715694059650105300,2.906105224609375,0.010309616103768349,0.03769440948963165,-0.039641156792640686,-0.08012216538190842,-0.797988772392273,-0.5973225831985474,0.017072834074497223,0.034835755825042725,-0.05352574586868286,0.8326988527700022,0.4322738798295124,0.12032460116809732,0.32445920436325604
1715694059660094200,2.91609423828125,-0.0019060373306274414,0.04477602243423462,-0.025253962725400925,-0.07959449291229248,-0.7980473041534424,-0.5973150134086609,0.02138221263885498,0.03307849168777466,-0.04829967021942139,0.8327141847805077,0.4322046086357153,0.12058887932138884,0.3244142139236197
1715694059670084400,2.92608447265625,-0.04446681588888168,0.020380936563014984,-0.008547155186533928,-0.07925983518362045,-0.7979181408882141,-0.5975320935249329,0.024038255214691162,0.015874743461608887,-0.036562204360961914,0.8327712684643572,0.4320400902614764,0.12072829225924012,0.3244350990230732
1715694059680073200,2.9360732421875,-0.0787229984998703,-0.005206715315580368,0.004005787894129753,-0.0787588506937027,-0.7973746061325073,-0.5983232855796814,0.031319260597229004,-0.0078621506690979,-0.025639116764068604,0.8330147229113265,0.4315620674456623,0.12079955276430934,0.3244196845698633
1715694059690062300,2.946062255859375,-0.09139751642942429,-0.016205569729208946,0.01933148130774498,-0.07846810668706894,-0.7967070937156677,-0.5992500185966492,0.03899359703063965,-0.0217742919921875,-0.01453477144241333,0.8332896592090513,0.4310426524173092,0.12073612542186046,0.32442779345117
1715694059700052200,2.95605224609375,-0.0856017917394638,-0.022579047828912735,0.02708028070628643,-0.07839001715183258,-0.7959560751914978,-0.6002574563026428,0.04045665264129639,-0.024035990238189697,-0.011147022247314453,0.8335662427620405,0.4305051880160794,0.1205676826544464,0.32449355676819913
1715694059710041300,2.966041259765625,0.09150800853967667,0.02113034948706627,0.08107587695121765,-0.07869405299425125,-0.7958633303642273,-0.6003405451774597,0.037663161754608154,-0.01524806022644043,-0.011781096458435059,0.8335746335672083,0.43050250088769154,0.12040487898967125,0.3245358157679057
1715694059720030200,2.9760302734375,0.0006856978870928288,0.042599156498909,0.1474977731704712,-0.07920850813388824,-0.7957149147987366,-0.6004696488380432,0.03025829792022705,0.00018274784088134766,-0.010324418544769287,0.8333934498429786,0.4304325734782066,0.12038674783581496,0.3251003495178675
1715694059730020400,2.986020263671875,0.07187492400407791,0.05248906835913658,0.1540214568376541,-0.07992913573980331,-0.7954810261726379,-0.600683867931366,0.015933789312839508,-0.00880962610244751,-0.006783783435821533,0.8331779387640036,0.43032835022588944,0.12031451064751011,0.3258162351604931
1715694059740009200,2.99600927734375,0.047616347670555115,0.06459633260965347,0.15862812101840973,-0.08054834604263306,-0.7954300045967102,-0.6006687879562378,-0.013766221702098846,-0.01615440845489502,0.006567895412445068,0.8328842589874845,0.430323057822813,0.12036475519747433,0.3265548536192492
1715694059749998300,3.005998291015625,0.06284989416599274,0.05908838286995888,0.1395052820444107,-0.08103865385055542,-0.7953731417655945,-0.6006780862808228,0.00813213735818863,-0.009665191173553467,0.01750248670578003,0.8326136845286781,0.4302918174651582,0.12045704017571818,0.32725118713283785
1715694059759988200,3.01598828125,0.10094045102596283,0.05622148886322975,0.13303866982460022,-0.08123277127742767,-0.7956721782684326,-0.6002557277679443,0.03129073977470398,-0.014706730842590332,0.013570547103881836,0.8322698371036745,0.43045767957574166,0.1207407300779185,0.32780284526819126
1715694059769977300,3.025977294921875,0.11289990693330765,0.036862440407276154,0.16920439898967743,-0.08157646656036377,-0.7962120175361633,-0.5994928479194641,0.019106954336166382,-0.018256306648254395,0.024633169174194336,0.8318240134220115,0.43082038960235924,0.12102634505446888,0.3283522680422722
1715694059779967200,3.03596728515625,0.1711728423833847,-0.0017283607739955187,0.18770650029182434,-0.08243004232645035,-0.7969439625740051,-0.5984025597572327,0.010881572961807251,-0.029990792274475098,0.024183809757232666,0.8312536647359287,0.43141774198259214,0.12115047925223174,0.3289660742859142
1715694059789956400,3.045956298828125,0.2508013844490051,-0.043352238833904266,0.08227170258760452,-0.08327407389879227,-0.7980842590332031,-0.5967636704444885,0.01186293363571167,-0.023052096366882324,0.02854156494140625,0.8306314479966818,0.432334137195174,0.12126568705376817,0.3292919011273999
1715694059799945200,3.0559453125,0.30036428570747375,-0.028847062960267067,-0.03836916387081146,-0.0832475796341896,-0.7996497750282288,-0.5946679711341858,0.014277845621109009,0.016202569007873535,0.02670532464981079,0.8300941976850358,0.43343054362475764,0.12167160683104952,0.3290554513906888
1715694059809935400,3.065935302734375,0.26323288679122925,0.004337521269917488,-0.11588579416275024,-0.08244525641202927,-0.8013725876808167,-0.5924565196037292,0.01869405061006546,0.052974820137023926,0.020038306713104248,0.8296472623522579,0.43451112616265136,0.12235942192888866,0.3285020308786328
1715694059819924200,3.07592431640625,0.15647199749946594,-0.0268118754029274,-0.19912436604499817,-0.08139314502477646,-0.8027910590171814,-0.5906790494918823,0.023653864860534668,0.05402708053588867,0.020488619804382324,0.8294220985058867,0.4353653376112081,0.12295323572854688,0.32771718220302026
1715694059829913000,3.0859130859375,-0.036799199879169464,-0.08427250385284424,-0.23455266654491425,-0.07984358817338943,-0.8034181594848633,-0.59003746509552,0.006631910800933838,0.030041813850402832,0.02814781665802002,0.8296646049150495,0.4356158620312643,0.12336975001198436,0.3266118642267115
1715694059839903200,3.0959033203125,-0.21568265557289124,-0.11949627101421356,-0.2158900946378708,-0.0782996118068695,-0.8028770685195923,-0.5909801721572876,0.007742971181869507,-0.015070199966430664,0.029594063758850098,0.8304114753425635,0.435077465861735,0.12335926131513678,0.3254334272325783
1715694059849892000,3.10589208984375,-0.3512660562992096,-0.07924552261829376,-0.1833246946334839,-0.07715713977813721,-0.8014535307884216,-0.5930589437484741,0.022301800549030304,-0.056380271911621094,0.028956830501556396,0.8313928037594822,0.4339840156384813,0.12299758142690093,0.3245231814760201
1715694059859882200,3.11588232421875,-0.454312801361084,-0.08629251271486282,-0.17471088469028473,-0.07615997642278671,-0.7993018627166748,-0.59608393907547,0.011203296482563019,-0.06452858448028564,0.02929621934890747,0.8325674847366231,0.432393704195146,0.12244883828418365,0.32384122712564645
1715694059869871000,3.12587109375,-0.4910740256309509,-0.18087947368621826,-0.14715969562530518,-0.07563520222902298,-0.7967087626457214,-0.5996118783950806,-0.01613115519285202,-0.05735611915588379,0.016894042491912842,0.8338901100868836,0.4306107120617444,0.12152563163100052,0.323161084496636
1715694059879860200,3.135860107421875,-0.48675772547721863,-0.24924707412719727,0.05501297861337662,-0.07651674747467041,-0.7937594056129456,-0.6033996343612671,-0.025030486285686493,-0.06747704744338989,0.01167905330657959,0.835154908661115,0.42884737195778133,0.11995885838890805,0.3228248854245721
1715694059889850000,3.14585009765625,-0.28918659687042236,-0.19744087755680084,0.038514163345098495,-0.07844134420156479,-0.7912892699241638,-0.6063895225524902,0.0029561221599578857,-0.0909585952758789,0.023015499114990234,0.8360524349353662,0.4275934215550953,0.11819102013642813,0.3228173186274228
1715694059899839200,3.155839111328125,-0.06083204597234726,-0.02273244597017765,-0.06315966695547104,-0.07894417643547058,-0.7902840375900269,-0.6076339483261108,0.015131913125514984,-0.05419844388961792,0.033567726612091064,0.8365058031127879,0.42705311896135834,0.11751030825264039,0.3226065746158354
1715694059909828000,3.165828125,0.038366977125406265,0.09520697593688965,-0.04702117666602135,-0.07820138335227966,-0.7902978658676147,-0.6077119708061218,-0.016876131296157837,0.08332765102386475,0.013595759868621826,0.8365895802844345,0.4269240869311425,0.1178127247334246,0.3224498072602549
1715694059919818200,3.175818359375,0.03594429790973663,0.09066015481948853,-0.016317326575517654,-0.07732740044593811,-0.790583610534668,-0.6074520349502563,-0.06222948431968689,0.09737682342529297,-0.0033725500106811523,0.8364894135653677,0.42692011322452894,0.11837736952238984,0.3225079201737485
1715694059929807000,3.18580712890625,-0.030276000499725342,-0.0009792137425392866,0.000183619384188205,-0.07697901874780655,-0.7906069159507751,-0.6074659824371338,-0.05140843987464905,0.06431913375854492,0.001402139663696289,0.8364652159401622,0.42685020862072887,0.11859972287769374,0.32258167035649066
1715694059939796200,3.195796142578125,-0.0736120194196701,-0.07916216552257538,-0.023604001849889755,-0.07714805752038956,-0.7902829051017761,-0.6078660488128662,-0.01112404465675354,0.0034635066986083984,0.004655599594116211,0.8366248398046126,0.42668280504641215,0.11835856883930485,0.3224778383003286
1715694059949786000,3.2057861328125,-0.08102227002382278,-0.09294881671667099,-0.04277663305401802,-0.07741623371839523,-0.7898164987564087,-0.6084378361701965,0.02555161714553833,-0.028390169143676758,0.006921112537384033,0.8369053049759969,0.4264663243101321,0.11793025426369222,0.32219324996410403
1715694059959773700,3.215773681640625,-0.07695429027080536,-0.05985158681869507,-0.025365415960550308,-0.07760690897703171,-0.7893666625022888,-0.608997106552124,0.03755256533622742,-0.01750284433364868,0.009982824325561523,0.837174746074051,0.4262416680240768,0.11755636817204748,0.3219269427027224
1715694059969764000,3.22576416015625,-0.06525368988513947,-0.013938955031335354,0.0006451451918110251,-0.07773960381746292,-0.7889361381530762,-0.6095377206802368,0.01775730401277542,-0.008442342281341553,0.010996520519256592,0.8373676951836345,0.4259917764791085,0.11731217239682831,0.32184476756754854
1715694059979752700,3.235752685546875,-0.06950495392084122,-0.02339663729071617,0.022448910400271416,-0.07789269834756851,-0.7885973453521729,-0.6099565029144287,-0.005160897970199585,-0.007514655590057373,0.012452840805053711,0.8374761900044287,0.4257905500292657,0.11715019112895098,0.3218879457594077
1715694059989741800,3.245741943359375,-0.06284358352422714,-0.051295649260282516,0.007834015414118767,-0.07829296588897705,-0.7881131172180176,-0.6105308532714844,-0.00862109661102295,-0.012576520442962646,0.018215179443359375,0.8376341842257682,0.4255458726734603,0.11681297718302558,0.32192305068587246
1715694059999731700,3.255731689453125,-0.04630732536315918,-0.0414494089782238,-0.009272732771933079,-0.07870583236217499,-0.7876943349838257,-0.6110179424285889,0.007737189531326294,-0.008524477481842041,0.017451047897338867,0.8377982421104073,0.42535989985669326,0.1164473849336235,0.32187409389773136
1715694060009720800,3.265720947265625,-0.029686804860830307,-0.020280206575989723,-0.00783862080425024,-0.07894337177276611,-0.7874231338500977,-0.6113367080688477,0.023645497858524323,0.003655552864074707,0.01694589853286743,0.8379128114516358,0.42523571053537645,0.1162162804936781,0.32182338573439057
1715694060019710000,3.2757099609375,-0.046354569494724274,-0.017158448696136475,0.005699292290955782,-0.07907150685787201,-0.7872011065483093,-0.6116061806678772,0.020950764417648315,0.0039370059967041016,0.016315102577209473,0.8379983046513839,0.42511576408939905,0.11607533799011793,0.32181043395399234
1715694060029699800,3.285699951171875,-0.0656779333949089,-0.01858563721179962,0.002258222084492445,-0.07917074114084244,-0.7868974804878235,-0.6119838953018188,0.01485493779182434,-0.007368206977844238,0.015548348426818848,0.8381154581537462,0.42493476153402154,0.11592449323519219,0.32179875857772666
1715694060039688700,3.295688720703125,-0.058059852570295334,-0.012133597396314144,-0.015968717634677887,-0.07907784730195999,-0.7865768671035767,-0.6124079823493958,0.015036702156066895,-0.01495206356048584,0.015224814414978027,0.8382668893651676,0.42470846283121877,0.11583918626633183,0.3217338284293461
1715694060049677800,3.305677734375,-0.06326393783092499,-0.015772007405757904,-0.02783842757344246,-0.07891382277011871,-0.7862748503684998,-0.6128168702125549,0.01713097095489502,-0.015177726745605469,0.017525672912597656,0.8384267617960263,0.4244842135074006,0.1157788024550829,0.3216349435100024
1715694060059667700,3.315667724609375,-0.059722572565078735,-0.016903318464756012,-0.02899577096104622,-0.07881869375705719,-0.7859702110290527,-0.6132197976112366,0.017783522605895996,-0.01328510046005249,0.015243053436279297,0.8385954677360536,0.4242768767258056,0.11566867058422464,0.3215083749760823
1715694060069656800,3.32565673828125,-0.06477725505828857,0.0026389569975435734,-0.025471877306699753,-0.07872451841831207,-0.7857223749160767,-0.6135492324829102,0.015507347881793976,-0.010587990283966064,0.010216772556304932,0.8387335282194951,0.4241049507052334,0.11558706080322917,0.3214039441277287
1715694060079646700,3.335646728515625,-0.07294341176748276,0.019705824553966522,-0.024443428963422775,-0.07835143059492111,-0.7855545282363892,-0.6138119101524353,0.010587155818939209,-0.010710060596466064,0.010830342769622803,0.8388506430284524,0.4239264374826,0.11567378307633402,0.32130277574580346
1715694060089635800,3.3456357421875,-0.061436690390110016,0.02487475425004959,-0.03337141126394272,-0.07762794196605682,-0.7853095531463623,-0.6142172813415527,0.0014713108539581299,-0.011580705642700195,0.014546871185302734,0.8390202743238852,0.42362499215337635,0.11590179292027103,0.3211754003958618
1715694060099625000,3.355625,-0.05543685331940651,0.023893114179372787,-0.03133349493145943,-0.07693526893854141,-0.7851131558418274,-0.6145554780960083,-0.004958659410476685,-0.008755862712860107,0.0158311128616333,0.8391682669102698,0.4233624577518835,0.11613138587321012,0.3210521086899545
1715694060109614800,3.36561474609375,-0.04383239522576332,0.03629358857870102,-0.029592320322990417,-0.07633119076490402,-0.7850446701049805,-0.6147180199623108,-0.006707154214382172,-0.0073899030685424805,0.014101624488830566,0.8392552541863472,0.42320180158879805,0.11636674829950702,0.32095090556889305
1715694060119604000,3.37560400390625,-0.04796002805233002,0.04104360193014145,-0.018875092267990112,-0.07574456930160522,-0.7850288152694702,-0.6148110032081604,-0.005569547414779663,-0.008901238441467285,0.013553619384765625,0.8393044796441658,0.4230738171075516,0.11663214566833383,0.32089475163581715
1715694060129592800,3.3855927734375,-0.058366596698760986,0.0271496269851923,-0.004935575649142265,-0.07526202499866486,-0.7849639058113098,-0.6149531006813049,-0.006815016269683838,-0.014337241649627686,0.013604283332824707,0.8393500320406067,0.42292867644268406,0.11685362973426847,0.3208865185196428
1715694060139583000,3.3955830078125,-0.06607181578874588,0.004686927888542414,-0.004497685469686985,-0.07493508607149124,-0.7848060727119446,-0.6151942610740662,-0.0068215057253837585,-0.02326875925064087,0.010091781616210938,0.8394308063854247,0.42275683029698297,0.1169594704183273,0.32086276160592986
1715694060149571800,3.40557177734375,-0.06516953557729721,-0.00277338526211679,-0.007946211844682693,-0.07471321523189545,-0.7845615148544312,-0.6155332326889038,-0.0014739260077476501,-0.028045237064361572,0.010476469993591309,0.8395466258976609,0.4225513969896314,0.11697741080710553,0.32082392873761556
1715694060159562000,3.41556201171875,-0.051297128200531006,-0.004659169353544712,-0.00823130365461111,-0.07458902150392532,-0.7843708395957947,-0.6157912015914917,0.0013620853424072266,-0.024955272674560547,0.0114363431930542,0.8396448338089638,0.4224052658464033,0.11695374757205082,0.32076806506548783
1715694060169550800,3.42555078125,-0.030754301697015762,-0.002958208555355668,-0.002065020613372326,-0.07462477684020996,-0.784299373626709,-0.6158778667449951,0.0011689737439155579,-0.021364569664001465,0.010546445846557617,0.8396801581877866,0.42236862444789636,0.1169009111005436,0.3207429669656387
1715694060179540000,3.4355400390625,-0.02266617678105831,-0.0018580567557364702,-0.00419368501752615,-0.07474614679813385,-0.7843155860900879,-0.6158425211906433,-0.0011816024780273438,-0.017045438289642334,0.01334923505783081,0.8396685627597356,0.42240484416818047,0.11684555515425163,0.32074587453390885
1715694060189529900,3.44552978515625,-0.013541121035814285,0.0016919368645176291,-0.019425103440880775,-0.07478883117437363,-0.7843596339225769,-0.6157812476158142,-0.006128519773483276,-0.01098942756652832,0.012433469295501709,0.8396654150708839,0.4224488738563314,0.11681748554176233,0.3207063099157888
1715694060199519000,3.45551904296875,-0.010247803293168545,-0.0048980554565787315,-0.016973130404949188,-0.07474280148744583,-0.7844595909118652,-0.6156594157218933,-0.008509159088134766,-0.00625079870223999,0.011167287826538086,0.8396591547775396,0.42251688852315183,0.11683217238617277,0.3206276645567575
1715694060209507800,3.4655078125,-0.015485442243516445,-0.009092533960938454,-0.015124896541237831,-0.07477610558271408,-0.7845645546913147,-0.6155216693878174,-0.00681266188621521,-0.005993247032165527,0.014218568801879883,0.8396521888752714,0.4226065723929089,0.11680266573406173,0.3205384774107992
1715694060219498000,3.475498046875,-0.013806265778839588,-0.012116819620132446,-0.02562820538878441,-0.07478456199169159,-0.7846704721450806,-0.6153855919837952,-0.0005175694823265076,-0.011807680130004883,0.01594412326812744,0.8396515476691848,0.4226937622975092,0.11677840694063668,0.3204339912788323
1715694060229486800,3.48548681640625,-0.014062994159758091,-0.013381022028625011,-0.028434909880161285,-0.07468884438276291,-0.7848089337348938,-0.6152206659317017,0.0008057653903961182,-0.015041470527648926,0.01486361026763916,0.8396626520879343,0.4227879481500396,0.11679046015472042,0.3202764174901589
1715694060239476000,3.49547607421875,-0.010832101106643677,-0.010055000893771648,-0.027614722028374672,-0.07453227788209915,-0.7849488258361816,-0.6150612235069275,-0.0001900196075439453,-0.014642179012298584,0.01369708776473999,0.8396773102726464,0.4228709692963125,0.11683123422360167,0.3201134281414272
1715694060249465900,3.5054658203125,-0.011920001357793808,-0.007175590842962265,-0.026670098304748535,-0.0743480697274208,-0.7850679159164429,-0.6149314045906067,0.00014457851648330688,-0.010952472686767578,0.01194983720779419,0.8396954089357676,0.4229323652583838,0.11688675916070454,0.3199644221756342
1715694060259455000,3.515455078125,-0.022073891013860703,-0.008099441416561604,-0.03448188304901123,-0.07420048862695694,-0.7851541042327881,-0.6148391962051392,-0.0020171627402305603,-0.007951915264129639,0.011888206005096436,0.8397230942208823,0.4229789049719408,0.1169155600597131,0.31981958715656184
1715694060269444900,3.52544482421875,-0.029367487877607346,-0.006432302296161652,-0.04795188456773758,-0.07402132451534271,-0.7851425409317017,-0.6148755550384521,-0.0042104944586753845,-0.0062239766120910645,0.004997074604034424,0.8398000979703419,0.42295733407181857,0.11691579423391843,0.31964585485190244
1715694060279434000,3.53543408203125,-0.02766152285039425,0.003283708356320858,-0.05174602195620537,-0.07378248870372772,-0.7850889563560486,-0.6149726510047913,-0.0038237273693084717,-0.0031495094299316406,0.00396496057510376,0.8398986915374661,0.42289635133727643,0.11692882734349333,0.31946270651026865
1715694060289423000,3.545423095703125,-0.03271380066871643,0.008401238359510899,-0.046851933002471924,-0.07346926629543304,-0.7850456237792969,-0.6150655150413513,-0.005281358957290649,-0.0017584562301635742,0.004195094108581543,0.8399892977224529,0.42282403831589244,0.11699181591923027,0.31929713998608067
1715694060299413000,3.5554130859375,-0.02863037958741188,0.019287975504994392,-0.06338850408792496,-0.07300730049610138,-0.7850505113601685,-0.6151142716407776,-0.004156380891799927,-0.0022876858711242676,0.005937635898590088,0.840078188457315,0.42275684214436243,0.11713036276997249,0.3191014333282953
1715694060309402000,3.565402099609375,-0.017216604202985764,0.032716698944568634,-0.07185255736112595,-0.072322778403759,-0.7851330637931824,-0.6150897145271301,-0.001575559377670288,0.0029828548431396484,0.006874382495880127,0.8401608445606601,0.42270054839237037,0.11738557951453693,0.31886439614290907
1715694060319390700,3.575390625,-0.020641321316361427,0.039576735347509384,-0.07021971046924591,-0.0715879276394844,-0.7852305173873901,-0.6150513887405396,-0.0025087594985961914,0.008909165859222412,0.003936886787414551,0.840236258622021,0.42264267174344905,0.11767534315622999,0.31863572734838286
1715694060329380900,3.585380859375,-0.03542026877403259,0.042276911437511444,-0.05791190639138222,-0.07087386399507523,-0.785240888595581,-0.6151208877563477,-0.003024458885192871,0.009941816329956055,0.0028162002563476562,0.8403225985295106,0.4225233462065685,0.1179558378379186,0.3184626103422847
1715694060339369700,3.59536962890625,-0.05744423717260361,0.03707282990217209,-0.053450047969818115,-0.070265993475914,-0.785112738609314,-0.6153541803359985,0.0017540454864501953,0.003054022789001465,0.00559765100479126,0.8404381073234739,0.42232666765784455,0.11816558414032069,0.31834091216410954
1715694060349359900,3.60535986328125,-0.06300491839647293,0.03191189095377922,-0.050568241626024246,-0.0697530135512352,-0.7848343253135681,-0.6157673597335815,0.007634498178958893,-0.005036771297454834,0.009016931056976318,0.8405973174676497,0.42204610324751446,0.1182937450898841,0.3182446395274977
1715694060359348700,3.6153486328125,-0.06016029417514801,0.027305155992507935,-0.055760473012924194,-0.06924416869878769,-0.7845296263694763,-0.6162130832672119,0.010772496461868286,-0.006287634372711182,0.009462594985961914,0.8407748567090568,0.42175201946887575,0.11840058253565669,0.3181260796280821
1715694060369337900,3.625337890625,-0.049403250217437744,0.04001801833510399,-0.053828347474336624,-0.06872204691171646,-0.7842696905136108,-0.6166023015975952,0.013515710830688477,-0.00210726261138916,0.008524298667907715,0.8409321912512296,0.4214842096355049,0.11853238003466093,0.31801598914860657
1715694060379327700,3.63532763671875,-0.038271714001894,0.044869501143693924,-0.051150742918252945,-0.06814614683389664,-0.7840977311134338,-0.616884708404541,0.016830839216709137,0.006052196025848389,0.005480289459228516,0.8410491726009456,0.4212610174794996,0.11873001230532709,0.3179284226775718
1715694060389316900,3.64531689453125,-0.03600456565618515,0.032894864678382874,-0.05101332440972328,-0.06757985800504684,-0.7839421033859253,-0.6171448230743408,0.01605091243982315,0.013235986232757568,0.004229843616485596,0.8411678456658526,0.421053874000922,0.11891689204286235,0.3178191768706232
1715694060399305700,3.6553056640625,-0.03729848936200142,0.02914566546678543,-0.04636137932538986,-0.06710565090179443,-0.7837497591972351,-0.6174408197402954,0.015302062034606934,0.014523744583129883,0.00274050235748291,0.8412951259477813,0.42084094030884955,0.1190482927463731,0.3177152266276677
1715694060409296000,3.6652958984375,-0.04555801674723625,0.03387090936303139,-0.034285008907318115,-0.06668434292078018,-0.7835053205490112,-0.6177964210510254,0.014529772102832794,0.01612567901611328,-0.001908719539642334,0.8414247488563912,0.42059884701889594,0.11915700945119942,0.3176514335188078
1715694060419284700,3.67528466796875,-0.05336272716522217,0.03245171159505844,-0.02034928649663925,-0.06628330051898956,-0.7832567095756531,-0.6181548237800598,0.013930387794971466,0.013695061206817627,0.0019438862800598145,0.8415372304960338,0.42035143004760966,0.11927809736670966,0.31763567688571753
1715694060429275000,3.68527490234375,-0.05854843556880951,0.006749546155333519,-0.011983764357864857,-0.06600598245859146,-0.7830002903938293,-0.6185092926025391,0.013988763093948364,0.006984114646911621,0.0071048736572265625,0.841641854798052,0.42012226401397224,0.11934250459918772,0.3176376247992361
1715694060439263700,3.695263671875,-0.038187507539987564,-0.0012087782379239798,-0.012651484459638596,-0.06582287698984146,-0.7828074097633362,-0.6187729835510254,0.016597986221313477,0.0029917359352111816,0.006453037261962891,0.8417361556374975,0.4199614637008364,0.1193561386891277,0.31759536682236317
1715694060449252900,3.7052529296875,-0.016427617520093918,0.012693189084529877,-0.005863354075700045,-0.06559176743030548,-0.782720148563385,-0.6189076900482178,0.01929662376642227,0.00984734296798706,-0.0006601214408874512,0.8417940351759782,0.4198619962259997,0.11942384486625057,0.3175475851032607
1715694060459242800,3.71524267578125,-0.014661886729300022,0.026416990906000137,-0.006959910504519939,-0.06526915729045868,-0.7826521992683411,-0.6190277338027954,0.017264999449253082,0.019010961055755615,-0.0035918354988098145,0.841831683936379,0.419750222534533,0.11956533660365795,0.31754234246647034
1715694060469231900,3.72523193359375,-0.039136603474617004,0.016789929941296577,-0.002845326904207468,-0.06494590640068054,-0.7824673652648926,-0.6192954182624817,0.012547232210636139,0.019115984439849854,-0.0016914606094360352,0.8419021419448592,0.41955631555270123,0.11968617266663037,0.31756642453655765
1715694060479221000,3.735220947265625,-0.07406821846961975,-0.01078257616609335,0.003033734392374754,-0.06478393822908401,-0.7820751070976257,-0.6198076605796814,0.00956234335899353,0.009354829788208008,0.0030016303062438965,0.8420468860885548,0.4192586867614679,0.11965920881610442,0.3175858692939064
1715694060489211000,3.7452109375,-0.10420135408639908,-0.036063697189092636,-0.0029365401715040207,-0.064822718501091,-0.7814621925354004,-0.6205762028694153,0.01393464207649231,-0.007417201995849609,0.009568512439727783,0.8422779776951175,0.4188600803894795,0.11944923208250521,0.31757817028236723
1715694060499199700,3.75519970703125,-0.11688066273927689,-0.03844483196735382,-0.012963674031198025,-0.06488613784313202,-0.7807391881942749,-0.6214789152145386,0.022024184465408325,-0.017112314701080322,0.014118075370788574,0.842569455881458,0.4184016605792983,0.11916629176916246,0.31751534362988354
1715694060509188900,3.76518896484375,-0.1131381243467331,-0.031015140935778618,-0.015298468060791492,-0.06488768011331558,-0.7800624370574951,-0.6223280429840088,0.019752174615859985,-0.015881717205047607,0.01722550392150879,0.8428537396375435,0.41796465412139444,0.118918107827621,0.317429745515349
1715694060519178800,3.7751787109375,-0.08348941802978516,-0.025520242750644684,-0.014538202434778214,-0.06477061659097672,-0.7795177698135376,-0.6230223178863525,0.008282572031021118,-0.008629143238067627,0.01650071144104004,0.8431010354868553,0.4175945103967589,0.1187588219405919,0.3173197714459083
1715694060529168000,3.78516796875,-0.046963900327682495,-0.03318535536527634,-0.008339693769812584,-0.06468052417039871,-0.7791117429733276,-0.6235392689704895,-0.00027614086866378784,-0.003618299961090088,0.015262961387634277,0.8432950751340277,0.41732195438858394,0.1186286096091844,0.317211169785171
1715694060539157800,3.79515771484375,-0.018963530659675598,-0.03400001674890518,-0.018767569214105606,-0.06463740020990372,-0.7788557410240173,-0.6238635182380676,-0.00337103009223938,-0.0038590431213378906,0.013939142227172852,0.8434409531492527,0.4171619410582932,0.11850806406424402,0.3170789160635863
1715694060549147000,3.80514697265625,0.0162876658141613,-0.030044419690966606,-0.018294591456651688,-0.06455333530902863,-0.7788072824478149,-0.6239326596260071,0.0017786622047424316,0.0006548762321472168,0.014069437980651855,0.8435235187494945,0.41713562666865156,0.11845474956424232,0.31691379302963874
1715694060559136000,3.815135986328125,0.038809649646282196,-0.02194441668689251,-0.008803018368780613,-0.06451217830181122,-0.7790156006813049,-0.6236768364906311,0.0032176077365875244,0.011483311653137207,0.014500200748443604,0.8435045279978526,0.4172864197589192,0.11846357303408867,0.3167624028257523
1715694060569126000,3.8251259765625,0.04839036986231804,-0.023002224043011665,-0.013001757673919201,-0.06444089859724045,-0.779404878616333,-0.6231976747512817,0.00029296427965164185,0.013215363025665283,0.016782939434051514,0.8434227847894324,0.4175523565860385,0.11853770839611605,0.3166018657134066
1715694060579115000,3.835114990234375,0.031909771263599396,-0.021867716684937477,0.0014012831961736083,-0.0643145814538002,-0.7798426151275635,-0.6226629614830017,0.0028216540813446045,0.013408958911895752,0.018994688987731934,0.8433273179039709,0.41784025484246246,0.1186509693770117,0.3164340728666232
1715694060589103900,3.845103759765625,-0.005949993617832661,-0.035511892288923264,0.009428849443793297,-0.06435991078615189,-0.7800816297531128,-0.6223588585853577,0.004408121109008789,0.011175990104675293,0.021284639835357666,0.8432739111343612,0.4180220576898933,0.11865133753712678,0.3163362576713994
1715694060599094000,3.855093994140625,-0.037697698920965195,-0.05143226683139801,0.00434867013245821,-0.06460180133581161,-0.7800419330596924,-0.6223835349082947,0.007686525583267212,0.005902528762817383,0.023399710655212402,0.8433116200598814,0.41805714348937495,0.11847556099972109,0.3162551382918844
1715694060609083000,3.865082763671875,-0.061644840985536575,-0.06332674622535706,0.008641419932246208,-0.06498284637928009,-0.7798022627830505,-0.6226440668106079,0.011836469173431396,0.0033130645751953125,0.02654421329498291,0.8434205701652622,0.41798872473267457,0.11816677799784733,0.3161705238234208
1715694060619073000,3.875072998046875,-0.05507572367787361,-0.0812961608171463,0.022384263575077057,-0.06558804959058762,-0.7794870734214783,-0.62297523021698,0.016073286533355713,0.0008005499839782715,0.02452552318572998,0.8435384946750213,0.41791202952993645,0.11773663210332613,0.3161177368388212
1715694060629062000,3.885061767578125,-0.03667541593313217,-0.0819702073931694,0.030433667823672295,-0.0663265585899353,-0.7792350053787231,-0.6232122182846069,0.0185055211186409,0.00105208158493042,0.02076476812362671,0.8436210999648472,0.4179022622119528,0.11726722341298962,0.31608439776219355
1715694060639051000,3.895051025390625,0.00028574420139193535,-0.06438694894313812,0.02971980720758438,-0.06697134673595428,-0.7791053652763367,-0.6233053803443909,0.01957753300666809,0.007254838943481445,0.01342684030532837,0.8436587806014468,0.4179533742652981,0.1168857580163265,0.31605767138980856
1715694060649041000,3.905041015625,0.02426964044570923,-0.05710133910179138,0.0474759005010128,-0.06763073056936264,-0.7791914939880371,-0.6231265068054199,0.01405709981918335,0.020600855350494385,0.009356975555419922,0.8435952521306642,0.41814327181721833,0.11658884311426918,0.31608582034091826
1715694060659030000,3.915030029296875,0.024206362664699554,-0.06032349914312363,0.053503699600696564,-0.06836963444948196,-0.7793559432029724,-0.6228402256965637,0.010203123092651367,0.029981553554534912,0.0025551915168762207,0.8434855250404938,0.4183964831327443,0.1162938803742812,0.31615232655562203
1715694060669019000,3.925018798828125,0.012332127429544926,-0.055557239800691605,0.05915173143148422,-0.06911831349134445,-0.7794623374938965,-0.6226242780685425,0.013789951801300049,0.03155285120010376,0.0028275251388549805,0.8433895726742058,0.4186109677070278,0.11598584991310554,0.31623732386426695
1715694060679009000,3.935009033203125,-0.005881124176084995,-0.058017466217279434,0.07033814489841461,-0.06991861015558243,-0.779502272605896,-0.6224849820137024,0.01857277750968933,0.02588599920272827,0.005389034748077393,0.8432991513313988,0.41878580637222995,0.11565447965178213,0.3163684788135354
1715694060688998000,3.944997802734375,-0.024695292115211487,-0.06780938059091568,0.08309947699308395,-0.07083810865879059,-0.7794038653373718,-0.6225042939186096,0.022879719734191895,0.014007747173309326,0.01128298044204712,0.8432391396022711,0.4188877578771283,0.11524276585581858,0.3165436589845455
1715694060698988000,3.954988037109375,-0.03041006252169609,-0.061931513249874115,0.09988012164831161,-0.07188241183757782,-0.7792350649833679,-0.6225958466529846,0.026380695402622223,0.0017235279083251953,0.007971882820129395,0.843175209041167,0.41896023001313665,0.11477983195491973,0.3167859519267264
1715694060708977000,3.964976806640625,-0.03793802112340927,-0.04740823060274124,0.09847690165042877,-0.07287707924842834,-0.7790041565895081,-0.6227691769599915,0.023087650537490845,-0.002352595329284668,0.005688488483428955,0.8431195178362927,0.4189756881299766,0.11434504824058603,0.3170710985561113
1715694060718965800,3.9749658203125,-0.04326711222529411,-0.041888296604156494,0.09568903595209122,-0.07378920167684555,-0.7787132859230042,-0.6230254173278809,0.02076488733291626,-0.0014227628707885742,-0.0009522438049316406,0.8430759945924233,0.41893025773761317,0.11395059641344482,0.31738842298691056
1715694060728956000,3.984955810546875,-0.04673933982849121,-0.04535706713795662,0.09368767589330673,-0.07469403743743896,-0.7783525586128235,-0.6233683824539185,0.016512274742126465,-0.0015393495559692383,-0.008772730827331543,0.8430602341028198,0.41883802373034895,0.11353643777288708,0.3177005589441763
1715694060738944800,3.99494482421875,-0.0618709996342659,-0.04074154049158096,0.08544372022151947,-0.07555553317070007,-0.7778842449188232,-0.6238488554954529,0.016717642545700073,-0.008614718914031982,-0.01184755563735962,0.8430870069236635,0.4186666710254593,0.11310963180740247,0.31800722659044584
1715694060748934000,4.004933837890625,-0.0718328133225441,-0.02664516121149063,0.07737727463245392,-0.07625212520360947,-0.7773258686065674,-0.6244598031044006,0.016224034130573273,-0.020586669445037842,-0.011740148067474365,0.8431555945618157,0.41840263313699455,0.11273574684727664,0.3183054530386721
1715694060758923800,4.014923828125,-0.0827530026435852,-0.005115902051329613,0.05778326466679573,-0.07665830105543137,-0.7767426371574402,-0.6251354217529297,0.012510359287261963,-0.03015732765197754,-0.007966995239257812,0.8432562713185017,0.4180661779300155,0.11248535952123048,0.3185695042309208
1715694060768913000,4.024912841796875,-0.08486516028642654,0.004795052111148834,0.032899752259254456,-0.07674892991781235,-0.776221513748169,-0.6257714033126831,0.007214605808258057,-0.033364057540893555,-0.0037909746170043945,0.8433767833849561,0.4177160681728962,0.11237253893979643,0.3187496644231123
1715694060778902800,4.03490283203125,0.03506811708211899,-0.11966538429260254,0.04655284807085991,-0.07685483992099762,-0.7759286165237427,-0.626121461391449,0.0029412582516670227,-0.03533536195755005,-0.004295408725738525,0.8434596664662652,0.41753724325592034,0.11225833535786675,0.3188046097522809
1715694060788892000,4.044891845703125,0.06592776626348495,1.0899794101715088,0.38246241211891174,-0.07640313357114792,-0.7778372764587402,-0.6238041520118713,-0.0008063316345214844,-0.036402106285095215,-0.010854661464691162,0.8422277829035072,0.4185133160685023,0.11377398580843026,0.32024112957511724
1715694060798880800,4.054880859375,-0.4952542781829834,0.16652029752731323,0.5506172776222229,-0.07665940374135971,-0.7754389643669128,-0.6267516613006592,-0.00663834810256958,-0.04316449165344238,0.0033996105194091797,0.8419087383399555,0.4165589469455669,0.1144674758153291,0.3233656850004811
1715694060808871000,4.064870849609375,-0.17598628997802734,-0.12235384434461594,0.3555186092853546,-0.08001074939966202,-0.773158609867096,-0.6291455030441284,-0.18634667992591858,-0.17363393306732178,0.11291015148162842,0.84173133277787,0.41546257103488415,0.11321711636731635,0.32567017462548925
1715694060818859800,4.07485986328125,-0.15994861721992493,-0.15520153939723969,-0.16996906697750092,-0.08164971321821213,-0.7719148397445679,-0.6304607391357422,-0.15142828226089478,-0.22120338678359985,0.08950620889663696,0.8420560111458476,0.414974971771524,0.11209554651727463,0.32584033692255676
1715694060828849000,4.084848876953125,0.15105614066123962,0.04988529905676842,-0.5196381211280823,-0.07905641198158264,-0.772214949131012,-0.6304237842559814,0.23104920983314514,0.07562077045440674,0.044135332107543945,0.8426913852683601,0.4148407499725574,0.11267323648224953,0.3241652873504717
1715694060838838800,4.0948388671875,0.24277853965759277,0.0446668341755867,-0.4512050151824951,-0.07463185489177704,-0.7739243507385254,-0.6288650035858154,0.12626758217811584,0.1477646827697754,-0.03779149055480957,0.8430381830513559,0.4153096280142379,0.11439149071643287,0.3220544697161431
1715694060848828000,4.104827880859375,0.2721420228481293,-0.14739874005317688,-0.29226917028427124,-0.07206328958272934,-0.7758272886276245,-0.6268165111541748,0.002971470355987549,0.11174958944320679,-0.040526628494262695,0.8431168616333043,0.41626792258930917,0.11538091577048828,0.32025345591395366
1715694060858817800,4.11481787109375,0.17568302154541016,-0.24629123508930206,-0.323377400636673,-0.07096735388040543,-0.7775055766105652,-0.6248589754104614,-0.05964791774749756,0.04102492332458496,-0.055560946464538574,0.8432227952609083,0.417395787780792,0.11554764317976371,0.3184413652920068
1715694060868807000,4.124806884765625,-0.09980527311563492,-0.1112026572227478,-0.43629997968673706,-0.06931862980127335,-0.7781527042388916,-0.6242380142211914,-0.01889243721961975,0.015365958213806152,-0.032744407653808594,0.8438240190167736,0.41776716964141214,0.11554899779384056,0.31635404975966164
1715694060878795800,4.134795654296875,-0.42725223302841187,-0.03585517406463623,-0.10940026491880417,-0.06733197718858719,-0.7766673564910889,-0.6263020038604736,0.013498961925506592,-0.03914374113082886,-0.018748044967651367,0.8448916167769297,0.41653908028596776,0.11551708219431467,0.3151334647097831
