time,seconds_elapsed,rotationRateX,rotationRateY,rotationRateZ,gravityX,gravityY,gravityZ,accelerationX,accelerationY,accelerationZ,quaternionW,quaternionX,quaternionY,quaternionZ
1715694096630806500,0.044806640625,0.040749017149209976,0.009534147568047047,0.013587575405836105,-0.1379925012588501,-0.31498441100120544,-0.9390116333961487,0.01216857135295868,0.0019504427909851074,-0.0007619261741638184,0.9846347497834974,0.15994987645419376,-0.07007294215960808,0
1715694096640796400,0.05479638671875,0.030355550348758698,0.005730620585381985,0.011485342867672443,-0.13787461817264557,-0.3150491416454315,-0.9390072226524353,0.00793081521987915,0.006684362888336182,0.0007290244102478027,0.9846336604582443,0.1599888454526371,-0.06999960733145788,0.00008338699740684241
1715694096650785500,0.06478564453125,0.01875055953860283,-0.008594523184001446,0.007798994891345501,-0.13780036568641663,-0.3150785565376282,-0.9390082955360413,0.008726328611373901,0.007965028285980225,0.0029731392860412598,0.9846339175631913,0.16000744252445293,-0.06995342603262833,0.0001354106971526714
1715694096660775400,0.074775390625,0.022224226966500282,-0.011813752353191376,0.011679752729833126,-0.13783590495586395,-0.3151226043701172,-0.9389882683753967,0.00978417694568634,0.006391614675521851,0.0053487420082092285,0.9846288153392315,0.16003375409878864,-0.06996470986602973,0.00017923115418083668
1715694096670764500,0.0847646484375,0.019111789762973785,-0.012047044932842255,0.010215813294053078,-0.137876957654953,-0.3151799142360687,-0.9389630556106567,0.01396036148071289,0.007898509502410889,0.003324568271636963,0.984622498103581,0.16006772510660353,-0.06997718994366581,0.00023340318398240578
1715694096680753400,0.09475341796875,0.00814041867852211,-0.023663220927119255,0.01185352448374033,-0.1380113959312439,-0.3151167035102844,-0.9389644861221313,0.012858837842941284,0.0092543363571167,0.0018001794815063477,0.9846227345779399,0.1600386958075871,-0.07003838977800783,0.00027683060812283555
1715694096690743600,0.10474365234375,0.0053369090892374516,-0.027887260541319847,0.022916827350854874,-0.13822676241397858,-0.3150225281715393,-0.9389644265174866,0.008832275867462158,0.01164737343788147,0.005126535892486572,0.9846227145644073,0.1599957052614771,-0.0701368137500257,0.0003442622428193598
1715694096700735500,0.114735595703125,0.011699840426445007,-0.028586871922016144,0.037722136825323105,-0.13848914206027985,-0.3149886131286621,-0.9389371275901794,0.009796515107154846,0.01442098617553711,0.008135735988616943,0.9846159257870628,0.1599550737489603,-0.07032648168343134,-5.551115123125783e-17
1715694096710724600,0.124724609375,0.014262067154049873,-0.032086532562971115,0.04333208501338959,-0.1388130635023117,-0.31505727767944336,-0.9388662576675415,0.011264890432357788,0.014871180057525635,0.006004929542541504,0.9845979309371833,0.15999285323659662,-0.07049225723754628,5.551115123125783e-17
1715694096720714500,0.134714599609375,-0.0030479468405246735,-0.04567531496286392,0.047400735318660736,-0.13926491141319275,-0.3149823844432831,-0.938824474811554,0.009809374809265137,0.016551077365875244,0.00555109977722168,0.9845873148844322,0.15997087423504913,-0.07069007963257645,0.0001994345329729419
1715694096730703600,0.14470361328125,-0.00835030060261488,-0.05054410547018051,0.050336334854364395,-0.1398213803768158,-0.3147766888141632,-0.9388107657432556,0.013631224632263184,0.011111617088317871,0.00689542293548584,0.984583760188166,0.1598810814773053,-0.07094130231957825,0.0003942517758696029
1715694096740693500,0.154693603515625,0.0024082306772470474,-0.04488888010382652,0.04936401546001434,-0.14035381376743317,-0.3146387040615082,-0.9387775659561157,0.015567481517791748,0.00917312502861023,0.007976174354553223,0.9845752757614123,0.15982687986329452,-0.07117999950460346,0.0005933822380890241
1715694096750682600,0.1646826171875,0.021542243659496307,-0.035951580852270126,0.04073457419872284,-0.14076338708400726,-0.3146495223045349,-0.9387125968933105,0.012604862451553345,0.009351730346679688,0.006583690643310547,0.9845586828355635,0.15984940417063442,-0.0713572851945699,0.0007898593568262391
1715694096760671500,0.17467138671875,0.01688661240041256,-0.03737930208444595,0.03370416536927223,-0.14111945033073425,-0.31471043825149536,-0.9386386871337891,0.005453586578369141,0.010526537895202637,-0.0022487640380859375,0.984539638141826,0.15989495556581185,-0.07151397688887148,0.0009467511815967611
1715694096770661600,0.18466162109375,-0.0008513722568750381,-0.041219312697649,0.026675013825297356,-0.1415148675441742,-0.3146589696407318,-0.9385964274406433,0.002446293830871582,0.010688722133636475,-0.0029471516609191895,0.9845289172952272,0.15987921783227865,-0.07169669207926982,0.001063115593465891
1715694096780650500,0.194650390625,-0.0014554830268025398,-0.0343928299844265,0.018506299704313278,-0.14187990128993988,-0.31448742747306824,-0.9385988116264343,0.004810214042663574,0.007175475358963013,0.0009614825248718262,0.9845294246225818,0.1597979971648094,-0.07186920999716599,0.0011426632976023199
1715694096790639400,0.204639404296875,-0.003045390360057354,-0.027646509930491447,0.01660080812871456,-0.14213283360004425,-0.3143342137336731,-0.9386118650436401,0.007687658071517944,0.006305098533630371,0.005063891410827637,0.9845326782291157,0.15972407791745213,-0.07198801065469354,0.0012012242307773424
1715694096800629500,0.21462939453125,-0.002558617852628231,-0.022051740437746048,0.01764277182519436,-0.14232942461967468,-0.31414520740509033,-0.9386453628540039,0.003123536705970764,0.007855594158172607,0.006363868713378906,0.9845410572273691,0.15963194395243513,-0.07207606924156268,0.0012708290449338078
1715694096810618400,0.224618408203125,-0.012928967364132404,-0.02428719960153103,0.011274619959294796,-0.14249610900878906,-0.3140000104904175,-0.9386686682701111,-0.0015162825584411621,0.0064592063426971436,0.005181729793548584,0.9845469303333927,0.15956063598538472,-0.07215312360895657,0.0013156112985148183
1715694096820607500,0.234607421875,-0.027274031192064285,-0.028852922841906548,0.010758965276181698,-0.1426643580198288,-0.31374505162239075,-0.9387283325195312,0.000986546277999878,0.00637209415435791,0.00316619873046875,0.9845620358410185,0.15942991310181515,-0.07223522880738362,0.0013304765436877308
1715694096830597400,0.244597412109375,-0.03495139256119728,-0.028106171637773514,0.002143905498087406,-0.14285799860954285,-0.313399076461792,-0.9388144612312317,0.0036978870630264282,0.005537837743759155,0.0025351643562316895,0.9845839373957075,0.15924954623435364,-0.07233496615225686,0.00131338232040068
1715694096840586500,0.25458642578125,-0.03971237689256668,-0.031052691861987114,0.0033441924024373293,-0.14310963451862335,-0.31295180320739746,-0.9389253258705139,0.00550590455532074,0.005655109882354736,0.00006729364395141602,0.9846121252545582,0.15901646712279094,-0.07246439422115944,0.0012923013662524685
1715694096850576400,0.264576416015625,-0.043963052332401276,-0.0289879459887743,0.012255395762622356,-0.14339447021484375,-0.3124540448188782,-0.939047634601593,0.0027237236499786377,0.005950808525085449,-0.0025722384452819824,0.9846431916350071,0.15875857520486247,-0.07260775280166469,0.0012881398113914755
1715694096860565500,0.2745654296875,-0.056164905428886414,-0.028356242924928665,0.016068974509835243,-0.14367550611495972,-0.3119211196899414,-0.9391818642616272,0.002791166305541992,0.006150335073471069,-0.0011104941368103027,0.9846772199613645,0.1584848174352241,-0.07274360314129588,0.0013173957683444426
1715694096870554400,0.284554443359375,-0.07957382500171661,-0.031970418989658356,0.020245345309376717,-0.14396506547927856,-0.3112320899963379,-0.9393661022186279,0.003691062331199646,0.009184449911117554,0.0013167858123779297,0.9847239259687961,0.15813094945839057,-0.07288044466328619,0.001362268292360913
1715694099158119400,2.572119384765625,0.06450846046209335,0.31741926074028015,0.1188831701874733,-0.21600976586341858,-0.6713582277297974,-0.7089555263519287,0.00977201759815216,-0.09673863649368286,0.039918601512908936,0.911637139145148,0.3774674327039046,-0.05514145365368725,0.15295593389401652
1715694099168109300,2.582109375,0.05149119347333908,0.2867196798324585,0.08289214223623276,-0.21453264355659485,-0.6715598106384277,-0.7092130780220032,0.011087238788604736,-0.08199542760848999,0.0398557186126709,0.9115328563484942,0.3774753122320089,-0.05390595158896344,0.15399490545522543
1715694099178098400,2.592098388671875,0.043953172862529755,0.2550041079521179,0.05554015189409256,-0.2130695879459381,-0.6717231869697571,-0.7094992995262146,0.015376776456832886,-0.07026588916778564,0.038356661796569824,0.9114687693605098,0.3774471747905396,-0.05276357685660174,0.15483608800046977
1715694099188087600,2.602087646484375,0.034805744886398315,0.22626538574695587,0.04656290262937546,-0.21169157326221466,-0.6718885898590088,-0.7097551822662354,0.01715734601020813,-0.05772554874420166,0.032554805278778076,0.911421383436243,0.37742094101002877,-0.051728678772486825,0.15552704804979134
1715694099198077400,2.612077392578125,0.029219921678304672,0.19999544322490692,0.05148222669959068,-0.21050220727920532,-0.6720067858695984,-0.7099969387054443,0.015220284461975098,-0.04723137617111206,0.024617910385131836,0.9113801392781805,0.3773836288630774,-0.05082451049155268,0.15615583944104167
1715694099208066600,2.622066650390625,0.03810902312397957,0.16410481929779053,0.04401951655745506,-0.20954197645187378,-0.6721546649932861,-0.7101409435272217,0.012642621994018555,-0.045771241188049316,0.01536250114440918,0.9113215754945931,0.377389952773766,-0.05006341443208559,0.1567267989002396
1715694099218056400,2.632056396484375,0.02998046949505806,0.13127203285694122,0.02007017470896244,-0.20873244106769562,-0.6723223924636841,-0.7102205753326416,0.01079551875591278,-0.03892016410827637,0.008117914199829102,0.9112694738505652,0.37741950740959007,-0.04943908355993171,0.1571564114346346
1715694099228045600,2.642045654296875,0.017012739554047585,0.1329069435596466,0.006231325212866068,-0.2078915536403656,-0.6724660396575928,-0.7103312015533447,0.011663585901260376,-0.027851223945617676,0.0068094730377197266,0.9112460405721381,0.37742301854771265,-0.04884937266539774,0.15746781938474763
1715694099238034400,2.652034423828125,-0.03667232766747475,0.13726148009300232,0.025573065504431725,-0.20700526237487793,-0.6723797917366028,-0.7106716632843018,0.009327694773674011,-0.01951467990875244,0.014428317546844482,0.9112833829391311,0.37727426384740703,-0.048252551333286486,0.15779206031762733
1715694099248024600,2.662024658203125,-0.10282950848340988,0.1165306344628334,0.06343255937099457,-0.20640437304973602,-0.6717955470085144,-0.7113986015319824,0.010878294706344604,-0.02772831916809082,0.033664166927337646,0.9114075543339746,0.37684859025368583,-0.04781036692461291,0.15822656535656332
1715694099258013400,2.672013427734375,-0.16073232889175415,0.10712461918592453,0.06876587122678757,-0.20606191456317902,-0.6706942915916443,-0.712536096572876,0.014655709266662598,-0.03859519958496094,0.0499994158744812,0.9116340147517932,0.3761284191333677,-0.04753281689104391,0.15871819661919584
1715694099268002600,2.68200244140625,-0.1856110394001007,0.07843225449323654,0.052097417414188385,-0.2058098316192627,-0.6693170666694641,-0.7139026522636414,0.01751643419265747,-0.03965198993682861,0.05748474597930908,0.9119366131208624,0.3752404638333302,-0.04736306035690657,0.15913210439005238
1715694099277992400,2.691992431640625,-0.1950504630804062,0.06256461143493652,0.01849631406366825,-0.20556235313415527,-0.6678874492645264,-0.7153114676475525,0.019237354397773743,-0.03612250089645386,0.051905035972595215,0.912279649536685,0.37431243285664384,-0.04727026342377241,0.15937883861508667
1715694099287981600,2.701981689453125,-0.22683583199977875,0.08583530783653259,0.013179578818380833,-0.20507018268108368,-0.6666570901870728,-0.7165993452072144,0.01724979281425476,-0.02464228868484497,0.04348832368850708,0.9126138933299686,0.37347456248588984,-0.047085996407584735,0.15948545446990253
1715694099297971500,2.711971435546875,-0.2734861373901367,0.08515673875808716,0.041842982172966,-0.2045782208442688,-0.6651191115379333,-0.7181673645973206,0.01532350480556488,-0.021846771240234375,0.04487323760986328,0.9130107705468442,0.37244696758236007,-0.046899534294403605,0.15967194085540132
1715694099307960600,2.721960693359375,-0.28878360986709595,0.07972335070371628,0.04705531895160675,-0.20423409342765808,-0.6634050011634827,-0.7198488116264343,0.012827903032302856,-0.04110848903656006,0.05380260944366455,0.913428403928948,0.37133098872525316,-0.04678574318754064,0.1599156039649312
1715694099317949400,2.731949462890625,-0.2692541182041168,0.08376443386077881,0.03439285606145859,-0.20387351512908936,-0.6618103981018066,-0.7214171290397644,0.013321802020072937,-0.04689931869506836,0.05608808994293213,0.9138210667116673,0.3702886664943008,-0.04666626280427971,0.1601241065523154
1715694099327939600,2.741939697265625,-0.20276537537574768,0.085663802921772,-0.002524415962398052,-0.20336243510246277,-0.6608595848083496,-0.7224322557449341,0.011834174394607544,-0.031401097774505615,0.04559808969497681,0.914081765165106,0.36962994676876404,-0.046449657509129605,0.16022087099756532
1715694099337928400,2.751928466796875,-0.15118984878063202,0.07766952365636826,-0.04247289523482323,-0.20258304476737976,-0.6606776118278503,-0.7228175401687622,0.009376317262649536,-0.008649110794067383,0.030556797981262207,0.9142032383414505,0.3694140380062517,-0.04609222949176711,0.1601288829946066
1715694099347917600,2.76191748046875,-0.11497431993484497,0.06674763560295105,-0.05566433072090149,-0.20168069005012512,-0.660905122756958,-0.7228619456291199,0.007024392485618591,0.008515655994415283,0.008048653602600098,0.9142586736012412,0.36943367433457397,-0.045692460252025335,0.15988152754038165
1715694099357907500,2.771907470703125,-0.09162532538175583,0.06349298357963562,-0.047743894159793854,-0.2007925659418106,-0.6611909866333008,-0.7228477001190186,0.0060294270515441895,0.009656012058258057,-0.00972682237625122,0.9142964795226308,0.36949271836159436,-0.04529104244362009,0.15964276438415176
1715694099367896600,2.781896484375,-0.06820362061262131,0.061059921979904175,-0.058758992701768875,-0.19994960725307465,-0.6612088680267334,-0.7230649590492249,0.0025467127561569214,-0.0012513995170593262,-0.016467511653900146,0.914392383639639,0.36939002598575,-0.0449279095269573,0.1594332911592276
1715694099377885400,2.791885498046875,-0.053315430879592896,0.04753265902400017,-0.08232183754444122,-0.1990947425365448,-0.6612504720687866,-0.7232627272605896,0.003553435206413269,-0.006535053253173828,-0.0264626145362854,0.9144950028982096,0.3692978216100498,-0.044584121471961585,0.1591545224751194
1715694099387875600,2.80187548828125,-0.03669038414955139,0.033436551690101624,-0.09601235389709473,-0.1982266753911972,-0.6614426970481873,-0.7233254909515381,0.003570348024368286,-0.005366325378417969,-0.032198190689086914,0.9145790494510475,0.36929417015277866,-0.04426123909274507,0.15877026556383778
1715694099397864400,2.811864501953125,-0.041120607405900955,0.03515641763806343,-0.08647996932268143,-0.1973794400691986,-0.6616520881652832,-0.7233656048774719,0.00260104238986969,-0.002791762351989746,-0.03278374671936035,0.9146570865471231,0.3693043235071879,-0.04394883845239253,0.1583832083879429
1715694099407854600,2.8218544921875,-0.06317983567714691,0.0362246111035347,-0.07451438903808594,-0.1965831071138382,-0.6616237163543701,-0.7236083745956421,0.005695730447769165,-0.0037052035331726074,-0.02552187442779541,0.9147804446525509,0.36917382751940964,-0.043663491972446844,0.15805304630683076
1715694099417843500,2.831843505859375,-0.09791214019060135,0.03150442615151405,-0.07466086000204086,-0.19586443901062012,-0.6612709760665894,-0.7241255044937134,0.007906809449195862,-0.006956934928894043,-0.017787456512451172,0.9149749550398183,0.3688496536190868,-0.043441712760157514,0.1577448770118372
1715694099427832300,2.841832275390625,-0.1199154406785965,0.026347748935222626,-0.0765349268913269,-0.19514241814613342,-0.66061931848526,-0.7249148488044739,0.007901877164840698,-0.007120490074157715,-0.009612798690795898,0.9152453005542089,0.36833675452201575,-0.043250498534556564,0.1574276649769668
1715694099437822500,2.851822509765625,-0.13779377937316895,0.0057647088542580605,-0.08391740918159485,-0.19447094202041626,-0.6597965955734253,-0.7258439660072327,0.007367730140686035,-0.007424414157867432,-0.002366483211517334,0.915560877595108,0.3677209870307121,-0.04311936788037202,0.15706763071919128
1715694099447811300,2.861811279296875,-0.1463337391614914,-0.015834858641028404,-0.08337492495775223,-0.19394317269325256,-0.6588872075080872,-0.7268106937408447,0.012638285756111145,-0.009508728981018066,-0.003475010395050049,0.9158977129565554,0.36706566287514486,-0.043098257137381024,0.15664224895275053
1715694099457800400,2.871800537109375,-0.12840396165847778,-0.013013772666454315,-0.07841771095991135,-0.1935228556394577,-0.6579906344413757,-0.7277342677116394,0.015635952353477478,-0.005461454391479492,-0.007632613182067871,0.9162229154274619,0.3664319550162631,-0.04313353496494182,0.15621316659457657
1715694099467790300,2.881790283203125,-0.09283450245857239,-0.004978748969733715,-0.07996367663145065,-0.1930314153432846,-0.6572497487068176,-0.7285338640213013,0.012901470065116882,0.004951834678649902,-0.00988471508026123,0.9165092260900444,0.36588946694059343,-0.043104040065527066,0.1558133395993247
1715694099477779500,2.891779541015625,-0.06565944850444794,-0.009281884878873825,-0.06627942621707916,-0.19254954159259796,-0.6566864848136902,-0.7291690707206726,0.00865069031715393,0.013253927230834961,-0.008105099201202393,0.9167431126077319,0.3654621267061911,-0.0430453632601345,0.15545586084079788
1715694099487769300,2.901769287109375,-0.04384656250476837,-0.01337622944265604,-0.04892147332429886,-0.1921672821044922,-0.6563161015510559,-0.7296032309532166,0.007322356104850769,0.019475340843200684,-0.011897683143615723,0.9169134425349791,0.36517027732393914,-0.04300047397591608,0.15514933584951313
1715694099497758500,2.911758544921875,-0.011298101395368576,-0.013925372622907162,-0.03750902786850929,-0.19190922379493713,-0.6562121510505676,-0.7297646999359131,0.00903269648551941,0.021202445030212402,-0.01388770341873169,0.9169977535125284,0.3650634904652963,-0.04296865976598738,0.15491127385197145
1715694099507747300,2.921747314453125,0.004820682108402252,-0.012728814035654068,-0.033503901213407516,-0.19172023236751556,-0.6563272476196289,-0.7297108173370361,0.01040010154247284,0.02142435312271118,-0.015620052814483643,0.9170168154364156,0.36510404627478066,-0.04293749370565306,0.15471128453697408
1715694099517737500,2.931737548828125,0.012389970943331718,-0.010774586349725723,-0.026530416682362556,-0.19156327843666077,-0.6565651893615723,-0.7295379638671875,0.008763030171394348,0.02430206537246704,-0.023788511753082275,0.9169995931341521,0.36522647652494855,-0.042902791874287916,0.1545336986149154
1715694099527726300,2.941726318359375,-0.0024606138467788696,-0.004612564109265804,-0.017726538702845573,-0.1913396269083023,-0.6567500829696655,-0.7294301986694336,0.006937235593795776,0.03252840042114258,-0.028229713439941406,0.9169959031095178,0.36530900663575017,-0.0428279745799591,0.15438090985902203
1715694099537715500,2.951715576171875,-0.017624173313379288,-0.009484818205237389,-0.01105278916656971,-0.19112597405910492,-0.6567308306694031,-0.7295035123825073,0.006204783916473389,0.02872490882873535,-0.028598904609680176,0.9170336039997653,0.3652669140168119,-0.04275874884415992,0.15427562180957888
1715694099547705300,2.961705322265625,-0.026765741407871246,-0.02031749114394188,-0.010102573782205582,-0.19102151691913605,-0.6564951539039612,-0.7297430634498596,0.006527557969093323,0.019135594367980957,-0.025689125061035156,0.9171152882471717,0.3651023188197715,-0.04276416466129457,0.154178944629763
1715694099557694500,2.971694580078125,-0.03738600015640259,-0.01665111631155014,-0.007774837780743837,-0.1910078227519989,-0.6561138033866882,-0.7300894260406494,0.01209859549999237,0.012391388416290283,-0.025586843490600586,0.91722370931086,0.36485778668233304,-0.04282618392317766,0.1540948985078004
1715694099567684400,2.981684326171875,-0.028889453038573265,-0.01529982965439558,-0.010387931950390339,-0.19098739326000214,-0.6556400060653687,-0.7305203080177307,0.014382228255271912,0.014008045196533203,-0.024927139282226562,0.9173529857145764,0.36455518105184437,-0.042887736611271515,0.154024699923708
1715694099577673500,2.991673583984375,-0.01838408038020134,-0.012444122694432735,-0.008845029398798943,-0.19092069566249847,-0.6552239656448364,-0.7309109568595886,0.01034824550151825,0.0160333514213562,-0.024185538291931152,0.9174713818641164,0.3642834390625578,-0.04291968066424348,0.1539536583849051
1715694099587662300,3.001662353515625,-0.008978593163192272,-0.007222196087241173,0.004073965363204479,-0.1908332109451294,-0.6548687219619751,-0.731252133846283,0.007437869906425476,0.019401252269744873,-0.024225831031799316,0.9175706055652526,0.3640490261729507,-0.042921469615767316,0.15391642428576408
1715694099597652500,3.011652587890625,0.018359500914812088,0.0015931336674839258,0.021153947338461876,-0.19082465767860413,-0.654562771320343,-0.7315282225608826,0.006147608160972595,0.023520350456237793,-0.026848912239074707,0.9176348978330212,0.3638595650932028,-0.04291961835062921,0.15398191567354386
1715694099607641300,3.021641357421875,0.036756884306669235,0.018475977703928947,0.03286200389266014,-0.19085024297237396,-0.6542940735816956,-0.7317619323730469,0.00591374933719635,0.024899542331695557,-0.0246010422706604,0.9176690595950698,0.3637026112198293,-0.04288858914837265,0.15415778021069648
1715694099617630500,3.03163037109375,0.04039987549185753,0.02174953557550907,0.03626405820250511,-0.1908249706029892,-0.6541401743888855,-0.7319060564041138,0.003248751163482666,0.027568578720092773,-0.02457892894744873,0.9176692862834822,0.3636142379420727,-0.042798004035690035,0.1543890955643158
1715694099627620400,3.041620361328125,0.035195790231227875,0.0151161327958107,0.03167623281478882,-0.19081689417362213,-0.6540690064430237,-0.731971800327301,0.0016079545021057129,0.03291428089141846,-0.02404022216796875,0.9176509834451158,0.3635788002173198,-0.04271491633536437,0.1546048866061771
1715694099637609500,3.051609375,0.0277591273188591,0.025617776438593864,0.02600729465484619,-0.190707266330719,-0.6540195941925049,-0.732044517993927,0.0003081709146499634,0.03416186571121216,-0.021434545516967773,0.9176417397079448,0.36354306672472003,-0.04259333016374159,0.15477731284711838
1715694099647598600,3.0615986328125,0.015352791175246239,0.03219525143504143,0.02129562944173813,-0.1904604434967041,-0.6538774967193604,-0.7322356104850769,-0.000838935375213623,0.0335773229598999,-0.015582382678985596,0.9176656387094281,0.36343300470788653,-0.04241051611925717,0.15494341383324844
1715694099657588500,3.07158837890625,0.007118776440620422,0.02589527890086174,0.015304048545658588,-0.19023513793945312,-0.6536753177642822,-0.732474684715271,-0.0017508864402770996,0.029697716236114502,-0.01136082410812378,0.9177070332747054,0.36328664777803854,-0.0422548309481659,0.15508417659102286
1715694099667577600,3.08157763671875,-0.013999824412167072,0.02432987280189991,0.00743494089692831,-0.19002242386341095,-0.6533511877059937,-0.7328189611434937,0.0003252178430557251,0.022278249263763428,-0.006377816200256348,0.9177836850981049,0.3630638041913327,-0.0421329463809644,0.15518562743783965
1715694099677567500,3.0915673828125,-0.0185236819088459,0.021413976326584816,0.011296924203634262,-0.1898297220468521,-0.6528838276863098,-0.7332853078842163,0.0033673644065856934,0.01450192928314209,-0.0019289255142211914,0.917894945848127,0.3627535085448437,-0.0420383982174084,0.1552790788829025
1715694099687556600,3.101556640625,-0.00030792783945798874,0.006667254492640495,0.015581151470541954,-0.18974098563194275,-0.652463972568512,-0.733681857585907,0.005979448556900024,0.007795512676239014,0.0020839571952819824,0.9179855198575513,0.36248564624185176,-0.04199081312810629,0.15538142126049964
1715694099697545500,3.11154541015625,0.01567402109503746,0.010382363572716713,0.016458462923765182,-0.189744234085083,-0.6521556377410889,-0.7339552044868469,0.00810365378856659,0.0027416348457336426,0.0024793148040771484,0.9180414997567325,0.3622985319137506,-0.041978364112283034,0.15549120092819257
1715694099707535600,3.12153564453125,0.03424930199980736,0.01849834807217121,0.019848933443427086,-0.18973080813884735,-0.6519405245780945,-0.734149694442749,0.008059710264205933,0.004815340042114258,-0.00030165910720825195,0.9180688568387192,0.36216964524514816,-0.04193212488140416,0.15564204111821917
1715694099717524500,3.1315244140625,0.025138627737760544,0.02227471023797989,0.028343284502625465,-0.1897498220205307,-0.651763916015625,-0.7343015670776367,0.005194813013076782,0.007888853549957275,-0.0007143020629882812,0.91807762720295,0.3620704577839867,-0.041883017181969434,0.15583444020207998
1715694099727513600,3.141513671875,0.01073412410914898,0.023144764825701714,0.03201951086521149,-0.18979698419570923,-0.651539146900177,-0.734488844871521,0.00367031991481781,0.005909323692321777,0.0037606358528137207,0.9180923301565576,0.36194552969614613,-0.041845130139907843,0.1560477830315662
1715694099737503500,3.15150341796875,-0.016723012551665306,0.012196775525808334,0.03181704506278038,-0.1899067908525467,-0.6512022018432617,-0.7347592711448669,0.0022084712982177734,0.003924369812011719,0.007464289665222168,0.9181315816103167,0.3617575112175024,-0.04185538841449843,0.15625007405779612
1715694099747492600,3.16149267578125,-0.03225962817668915,0.018593955785036087,0.030361628159880638,-0.1900153011083603,-0.6507996916770935,-0.7350877523422241,0.002301737666130066,-0.00046062469482421875,0.010936081409454346,0.9181912162266607,0.36152735393418967,-0.04188195443354553,0.15642525744343688
1715694099757482500,3.171482421875,0.17958715558052063,-0.12187740951776505,0.04907359555363655,-0.19033025205135345,-0.6507472991943359,-0.7350525856018066,0.00496654212474823,-0.0004519820213317871,0.013037145137786865,0.9181581106495351,0.3615380976661489,-0.04199894709913368,0.1565629000092872
1715694099767471600,3.1814716796875,0.3089611530303955,0.051299434155225754,0.08385394513607025,-0.19089451432228088,-0.6529773473739624,-0.7329255938529968,0.007636517286300659,0.0027546286582946777,0.01219189167022705,0.9175054869861051,0.3630157037288555,-0.04191436969832116,0.15699208086199457
1715694099777460500,3.19146044921875,0.22980548441410065,0.0563431978225708,0.0243625920265913,-0.19084280729293823,-0.6545664072036743,-0.7315202355384827,0.0034496933221817017,0.009989440441131592,0.008635103702545166,0.9170684974030424,0.3640171819760615,-0.04160973964419787,0.15730691682851172
1715694099787450600,3.20145068359375,0.30005940794944763,0.05929291248321533,0.011104576289653778,-0.19039303064346313,-0.6565614342689514,-0.7298476696014404,-0.010076895356178284,0.05437338352203369,0.013706862926483154,0.9165695153391966,0.3652240138455083,-0.04108030145732733,0.15755689083918217
1715694099797439500,3.211439453125,0.15203095972537994,0.01950901746749878,-0.016504013910889626,-0.19003155827522278,-0.6581186056137085,-0.7285381555557251,-0.03274668753147125,0.04570722579956055,0.025230050086975098,0.9161970016906237,0.3661613978401915,-0.0407031796778069,0.15764537174684345
1715694099807428400,3.221428466796875,0.05253446102142334,0.00946756824851036,-0.019884897395968437,-0.18979327380657196,-0.6588347554206848,-0.7279528379440308,-0.003855958580970764,0.00815427303314209,0.017045795917510986,0.9160421494447982,0.36658124708999595,-0.040518887719354746,0.157617526088422
1715694099817418500,3.23141845703125,-0.06790204346179962,0.005806786939501762,-0.04564585164189339,-0.18951033055782318,-0.6587727069854736,-0.7280826568603516,0.010601088404655457,-0.012903869152069092,0.021844804286956787,0.9160976837554172,0.36650335628191866,-0.04042237916790134,0.15750009912504126
1715694099827407400,3.241407470703125,-0.14978092908859253,-0.03500855341553688,-0.07399387657642365,-0.18919909000396729,-0.6580470204353333,-0.7288194298744202,0.01134270429611206,-0.030109047889709473,0.02215433120727539,0.9163556691663377,0.36599617858286504,-0.04046082878055898,0.15716841023145411
1715694099837397500,3.2513974609375,-0.2156466543674469,-0.08212067186832428,-0.09312089532613754,-0.18904626369476318,-0.6568724513053894,-0.7299178838729858,0.005376279354095459,-0.029284775257110596,0.013014137744903564,0.9167471817855429,0.36521769643037283,-0.040707407511094335,0.15663186127749507
1715694099847386400,3.261386474609375,-0.2939435839653015,-0.0871652290225029,-0.1320137083530426,-0.18899020552635193,-0.655239999294281,-0.7313981652259827,0.011637359857559204,-0.03134441375732422,0.005415439605712891,0.917270358464585,0.36415741247226896,-0.04111334039031825,0.15592996806897313
1715694099857375500,3.27137548828125,-0.3912915289402008,-0.007235245779156685,-0.14344997704029083,-0.18844512104988098,-0.653005063533783,-0.7335344552993774,0.018721669912338257,-0.026484012603759766,-0.002839505672454834,0.9179984493771159,0.3626575970146431,-0.04137914607896129,0.15506795410425261
1715694099867365400,3.281365478515625,-0.3601841926574707,0.019254686310887337,0.005237233825027943,-0.18793411552906036,-0.6500455141067505,-0.7362891435623169,0.008002519607543945,-0.02366054058074951,-0.006813943386077881,0.9188065921391133,0.3607369700198534,-0.04152440118720174,0.1547226088271081
1715694099877354500,3.2913544921875,-0.14702625572681427,-0.0006694879848510027,0.0648348480463028,-0.18842019140720367,-0.6480140686035156,-0.7379536628723145,-0.0067091286182403564,-0.0425376296043396,-0.008475780487060547,0.9192189740098703,0.35954057002587814,-0.041877658547902374,0.15496265106951423
1715694099887343400,3.30134326171875,0.02486453764140606,0.0057897428050637245,-0.035598546266555786,-0.18859419226646423,-0.6476771235466003,-0.7382050156593323,-0.03448924422264099,-0.04360699653625488,-0.0034332275390625,0.9192751692038571,0.3593546642906317,-0.0419729320265364,0.1550346474982502
1715694099897333500,3.31133349609375,0.021514814347028732,0.034641895443201065,-0.10808506608009338,-0.18790428340435028,-0.6482128500938416,-0.7379106283187866,-0.026359587907791138,0.05183839797973633,-0.020771682262420654,0.9192512557820794,0.359592418009679,-0.0416890444156616,0.1547013559116161
1715694099907322400,3.321322265625,-0.05624442920088768,0.027257218956947327,-0.10107748955488205,-0.18694521486759186,-0.6483946442604065,-0.7379944920539856,-0.009847328066825867,0.08551323413848877,-0.033398330211639404,0.9193498768457423,0.3595741008268505,-0.04134255998136341,0.15425007741781366
1715694099917311500,3.3313115234375,-0.09056293964385986,-0.00017067790031433105,-0.04971063509583473,-0.18634815514087677,-0.6480633020401001,-0.7384363412857056,-0.0036237090826034546,0.02407050132751465,-0.025128722190856934,0.9195266233572473,0.3592842144585201,-0.04119074312941487,0.1539118420827923
1715694099927301400,3.34130126953125,-0.0717407837510109,-0.01271097082644701,-0.030702589079737663,-0.18613722920417786,-0.6475963592529297,-0.7388990521430969,0.005366414785385132,-0.02705562114715576,-0.014640986919403076,0.9196882909159134,0.3589602653036572,-0.041206736171504804,0.15369741534103448
1715694099937290500,3.35129052734375,-0.039443664252758026,0.014345946721732616,-0.06495057046413422,-0.18581293523311615,-0.6473367810249329,-0.7392081618309021,0.009024664759635925,-0.03145039081573486,-0.014896512031555176,0.9198132482672305,0.3587508448775667,-0.04115537021307544,0.15345249271089717
1715694099947280400,3.3612802734375,-0.036908600479364395,0.04188196733593941,-0.08131623268127441,-0.18507082760334015,-0.647258996963501,-0.7394623756408691,0.003933802247047424,0.001278221607208252,-0.020532190799713135,0.9199328381512283,0.3586040813483057,-0.04088917946446563,0.1531497181830403
1715694099957269500,3.37126953125,-0.06041286513209343,0.031051157042384148,-0.08070050925016403,-0.18426303565502167,-0.6471158266067505,-0.7397893071174622,-0.007448315620422363,0.018499553203582764,-0.018160581588745117,0.9200762213835256,0.35840847491999617,-0.040604291354853356,0.15282137955823044
1715694099967258400,3.38125830078125,-0.08207795023918152,0.017510848119854927,-0.08657410740852356,-0.18362922966480255,-0.6468062400817871,-0.7402174472808838,-0.009958982467651367,0.009629786014556885,-0.012040853500366211,0.9202493174901107,0.3581291980801671,-0.04043200791501522,0.15247872494193926
1715694099977248500,3.39124853515625,-0.08251912146806717,0.02306886576116085,-0.09774088114500046,-0.18298672139644623,-0.6462023258209229,-0.7409036755561829,-0.00045439600944519043,-0.00048035383224487305,-0.006334483623504639,0.9204971638603376,0.3576654935468615,-0.04029321624564039,0.15210739982319155
1715694099987237400,3.4012373046875,-0.06722351908683777,0.0243929885327816,-0.1053021252155304,-0.18221168220043182,-0.6456138491630554,-0.7416074872016907,0.006140559911727905,-0.0009772777557373047,0.00032025575637817383,0.9207571221422877,0.3571949201690945,-0.04010027970517677,0.1516909069239591
1715694099997226500,3.4112265625,-0.060413505882024765,0.020130865275859833,-0.09050653874874115,-0.18143635988235474,-0.6452361941337585,-0.7421259880065918,0.006402835249900818,0.0007202625274658203,-0.003281116485595703,0.9209655011492024,0.3568559042904609,-0.03988555957252024,0.1512794317113868
1715694100007216400,3.42121630859375,-0.05905875191092491,0.031885258853435516,-0.08706013858318329,-0.1806616336107254,-0.6449978947639465,-0.742522120475769,0.003537684679031372,0.005761504173278809,-0.006440341472625732,0.9211341105159244,0.3566053508230257,-0.03964286965931099,0.1509074970926938
1715694100017205500,3.43120556640625,-0.07320567965507507,0.03414494916796684,-0.09261036664247513,-0.17978720366954803,-0.6447383761405945,-0.7429596185684204,0.002434343099594116,0.009911775588989258,-0.0035614371299743652,0.9213146856033666,0.35633079248554,-0.039351842957191574,0.150529153080053
1715694100027194600,3.441194580078125,-0.07595992088317871,0.020448846742510796,-0.09146653860807419,-0.17898961901664734,-0.6443246006965637,-0.7435109615325928,0.00040081143379211426,0.009436964988708496,-0.00026351213455200195,0.921525701708175,0.35596992550793277,-0.03911432953680957,0.15015298921933928
1715694100037183500,3.45118359375,-0.06517241150140762,0.010370912030339241,-0.09690465033054352,-0.17832551896572113,-0.643871009349823,-0.7440632581710815,0.0004996508359909058,0.009074926376342773,-0.0034496188163757324,0.9217409520397113,0.35559870997322773,-0.03896071873527915,0.14975046133550396
1715694100047172600,3.461172607421875,-0.05626733601093292,0.015866611152887344,-0.10048606991767883,-0.17765764892101288,-0.6435518264770508,-0.7444990277290344,0.00230368971824646,0.014767706394195557,-0.0040972232818603516,0.9219294746329243,0.35530929089175467,-0.03880474979076054,0.1493166135852469
1715694100057162500,3.47116259765625,-0.049658168107271194,0.01541893370449543,-0.09309020638465881,-0.17695175111293793,-0.6433399319648743,-0.7448501586914062,0.002940565347671509,0.018492579460144043,-0.00083160400390625,0.9220931341021003,0.3550828367901474,-0.038614641401624156,0.1488936450191048
1715694100067151600,3.481151611328125,-0.04060901328921318,0.01819821074604988,-0.08909759670495987,-0.17624378204345703,-0.6432111263275146,-0.7451292872428894,0.0007982701063156128,0.01781439781188965,-0.0006593465805053711,0.9222347673124123,0.3549084421034267,-0.03841035917635696,0.14848482846726718
1715694100077140500,3.491140380859375,-0.03513781353831291,0.018268518149852753,-0.0985824391245842,-0.1754923164844513,-0.6431032419204712,-0.7453996539115906,0.0021525323390960693,0.020025908946990967,0.0012285113334655762,0.9223750186920732,0.3547423461113044,-0.03818444197631729,0.1480674115228886
1715694100087130600,3.501130615234375,-0.031019501388072968,0.014832772314548492,-0.09515468776226044,-0.17477700114250183,-0.6429792046546936,-0.7456746697425842,0.0028257668018341064,0.02505934238433838,0.004738330841064453,0.9225157959393077,0.3545707211553799,-0.03797721734556178,0.1476543820689002
1715694100097119500,3.511119384765625,-0.0370936393737793,-0.0014942691195756197,-0.09094423055648804,-0.17415720224380493,-0.6428301930427551,-0.745948076248169,0.004952564835548401,0.026039540767669678,0.005103349685668945,0.9226557820072687,0.3543944818356469,-0.03782212702800353,0.14724211547769478
1715694100107108600,3.521108642578125,-0.03819192573428154,-0.00780889019370079,-0.0834820494055748,-0.17369487881660461,-0.6426397562026978,-0.7462199926376343,0.01045641303062439,0.02354496717453003,0.005115807056427002,0.9227940069458257,0.3542102508524312,-0.03775055803417729,0.14683779761795612
1715694100117098500,3.531098388671875,-0.04455528408288956,-0.013768778182566166,-0.07406431436538696,-0.17332416772842407,-0.6423998475074768,-0.7465126514434814,0.015075311064720154,0.020283818244934082,0.00437086820602417,0.9229340489939941,0.35400653441653074,-0.03772334951394016,0.14645470057050652
1715694100127087600,3.541087646484375,-0.05214118957519531,-0.015566944144666195,-0.06090477108955383,-0.1730208694934845,-0.6420581340789795,-0.7468769550323486,0.01672513782978058,0.023360073566436768,0.0035907626152038574,0.9230842384425242,0.35374974318774444,-0.037718011242026506,0.1461302260660321
1715694100137077500,3.551077392578125,-0.05444738268852234,-0.018959278240799904,-0.05102643743157387,-0.17280258238315582,-0.6416550874710083,-0.7472737431526184,0.014309599995613098,0.0262376070022583,0.002721130847930908,0.9232363096177845,0.3534661505240574,-0.03774647232328637,0.14584814067366075
1715694100147066600,3.561066650390625,-0.046476006507873535,-0.022168654948472977,-0.0520474947988987,-0.17266452312469482,-0.6412725448608398,-0.7476339340209961,0.011943742632865906,0.02797609567642212,0.0019979476928710938,0.9233774547258546,0.35320418877957,-0.03781299279536757,0.14557186636981062
1715694100157055700,3.5710556640625,-0.0480208545923233,-0.02242325246334076,-0.045955315232276917,-0.17249853909015656,-0.6409550905227661,-0.7479444146156311,0.015073657035827637,0.03183948993682861,0.002232074737548828,0.9235056106966699,0.35297927436733595,-0.03786042923291591,0.14529167243712987
1715694100167045600,3.581045654296875,-0.05686494708061218,-0.03288628160953522,-0.027233291417360306,-0.17249520123004913,-0.6405587792396545,-0.7482845783233643,0.015634924173355103,0.03151959180831909,0.0013362765312194824,0.9236298623689471,0.35272634261500313,-0.037971727851001336,0.1450863530101159
1715694100177034500,3.591034423828125,-0.06132004037499428,-0.04275568947196007,-0.020319193601608276,-0.1726445108652115,-0.64008629322052,-0.7486543655395508,0.018225640058517456,0.02645421028137207,-0.0009031295776367188,0.9237583553146571,0.35244373167315707,-0.03816057160308414,0.14490571859726603
1715694100187024600,3.601024658203125,-0.0473158098757267,-0.03758170083165169,-0.021146636456251144,-0.17278645932674408,-0.6396569609642029,-0.7489885687828064,0.021648183465003967,0.02494138479232788,-0.0003401041030883789,0.9238781497107666,0.3521866698782644,-0.03834405863796561,0.14471868001003624
1715694100197013500,3.611013427734375,-0.04183848574757576,-0.040749531239271164,-0.014221485704183578,-0.17289556562900543,-0.6393195390701294,-0.7492513656616211,0.016111597418785095,0.02736586332321167,-0.0026102066040039062,0.9239751289086136,0.35198370183816585,-0.038494098265133,0.14455270598283743
1715694100207002600,3.621002685546875,-0.033199723809957504,-0.04275995120406151,-0.00803096778690815,-0.17309121787548065,-0.6390246152877808,-0.7494577765464783,0.009806975722312927,0.028261125087738037,-0.007958054542541504,0.9240528475322126,0.3518171384115989,-0.038675844716410196,0.14441333196253114
1715694100216992500,3.630992431640625,-0.03633745759725571,-0.04036230593919754,-0.015900541096925735,-0.1732863336801529,-0.6387304663658142,-0.7496634125709534,0.009361222386360168,0.025601863861083984,-0.006302833557128906,0.9241287760501462,0.3516513888253906,-0.03885363850685436,0.1442832458049481
1715694100226981600,3.640981689453125,-0.03287188708782196,-0.04776456207036972,-0.011213911697268486,-0.17350275814533234,-0.6384261250495911,-0.7498725652694702,0.008845195174217224,0.02285611629486084,-0.005788445472717285,0.9242068313296465,0.3514812958419151,-0.039046247732556855,0.14414584626340005
1715694100236970800,3.650970703125,-0.0374370813369751,-0.04341721907258034,-0.0064555746503174305,-0.1737433522939682,-0.6381004452705383,-0.7500940561294556,0.004294559359550476,0.015663981437683105,-0.005551755428314209,0.9242865389450443,0.35130109495099926,-0.039249340092928214,0.14401901352859292
1715694100246960600,3.660960693359375,-0.03227107971906662,-0.040158841758966446,-0.011993617750704288,-0.17392697930335999,-0.6377661228179932,-0.7503358125686646,0.0016553103923797607,0.010294198989868164,-0.0031126737594604492,0.9243720750607578,0.35110943378409926,-0.03942395514317873,0.14388985686654748
1715694100256949800,3.67094970703125,-0.03205866366624832,-0.043521881103515625,-0.024030838161706924,-0.1740512102842331,-0.6374937295913696,-0.7505384683609009,0.0024204254150390625,0.006024003028869629,0.0003247857093811035,0.9244524936043763,0.3509480877024433,-0.03957536581436216,0.14372514018557025
1715694100266938600,3.680938720703125,-0.03631626069545746,-0.04450032487511635,-0.026250585913658142,-0.17410694062709808,-0.6372168064117432,-0.7507606148719788,0.003025442361831665,0.0029395222663879395,0.0022407174110412598,0.9245463711771127,0.35077443188709223,-0.039711211764402427,0.1435070685550367
1715694100276928800,3.6909287109375,-0.039634402841329575,-0.038108740001916885,-0.029488788917660713,-0.17417748272418976,-0.636879563331604,-0.7510303854942322,0.00391995906829834,0.0023123621940612793,0.0021594762802124023,0.924651928000545,0.3505655920461672,-0.03985686503825478,0.1432970534092292
1715694100286917600,3.700917724609375,-0.03774675354361534,-0.03218134120106697,-0.03851770609617233,-0.17417031526565552,-0.636494517326355,-0.7513584494590759,0.002829432487487793,0.0019273161888122559,0.005691885948181152,0.924775443000694,0.35031856153280827,-0.039971029209876496,0.1430724440510645
1715694100296907800,3.71090771484375,-0.03320739418268204,-0.025568179786205292,-0.04057406261563301,-0.1740753948688507,-0.6361815929412842,-0.7516453862190247,-0.00045458972454071045,0.0003479123115539551,0.007458925247192383,0.9248901486362462,0.35010600083625554,-0.04003857664678093,0.14283220631679278
1715694100306896600,3.720896728515625,-0.023632265627384186,-0.03361758589744568,-0.044692374765872955,-0.17396128177642822,-0.6359061002731323,-0.7519048452377319,-0.00018718838691711426,0.0009574294090270996,0.003995299339294434,0.9249992760505507,0.3499139152544033,-0.040097693563141856,0.14257880179359633
1715694100316885500,3.730885498046875,-0.02355327643454075,-0.03328176215291023,-0.053719691932201385,-0.1738639771938324,-0.635707676410675,-0.752095103263855,0.002462059259414673,0.0027579069137573242,-0.0007277727127075195,0.9250953972200868,0.34976931678864476,-0.0401728669405772,0.1422887950558695
1715694100326875600,3.740875732421875,-0.034191541373729706,-0.03289453685283661,-0.05297187715768814,-0.17375150322914124,-0.6355383396148682,-0.7522642612457275,0.00947543978691101,0.006540536880493164,-0.004586994647979736,0.9251890700643022,0.3496400247182735,-0.04024589249506691,0.141976577548318
1715694100336864500,3.750864501953125,-0.03323429450392723,-0.03550603240728378,-0.04532041773200035,-0.17370280623435974,-0.6353510022163391,-0.7524336576461792,0.011532440781593323,0.0037897825241088867,-0.0082322359085083,0.9252796951804076,0.34950725953948947,-0.0403464901395566,0.14168407481079193
1715694100346853400,3.760853271484375,-0.02763313055038452,-0.037559330463409424,-0.04345327615737915,-0.17368148267269135,-0.6351986527442932,-0.7525672912597656,0.01463918387889862,0.0011655092239379883,-0.01160818338394165,0.9253576007879671,0.34939957660255294,-0.040451173220698466,0.1414109940028213
1715694100356843500,3.770843505859375,-0.03653959184885025,-0.03609751909971237,-0.04041121155023575,-0.17365805804729462,-0.6350463032722473,-0.7527011632919312,0.018018469214439392,0.00260007381439209,-0.013000130653381348,0.9254359257124666,0.3492916040528062,-0.04055595873933157,0.14113447337723656
1715694100366832400,3.780832275390625,-0.0450340136885643,-0.039845921099185944,-0.027567850425839424,-0.17370641231536865,-0.6348379254341125,-0.7528657913208008,0.019821569323539734,0.004238009452819824,-0.016085684299468994,0.9255167149243922,0.3491583190515194,-0.04068874975708542,0.14089622375893224
1715694100376822500,3.790822509765625,-0.05017945542931557,-0.0374850295484066,-0.029985466971993446,-0.1738344132900238,-0.6345800757408142,-0.7530536651611328,0.021216049790382385,0.0003790855407714844,-0.019285261631011963,0.9255999277510618,0.349003993489829,-0.040858155658701156,0.14068292093896012
1715694100386811400,3.800811279296875,-0.039213355630636215,-0.03379042446613312,-0.026479415595531464,-0.17394301295280457,-0.6343111395835876,-0.7532550692558289,0.024040713906288147,-0.0013089179992675781,-0.022288203239440918,0.925685235245978,0.34884130931220125,-0.041014670458663,0.1404788693259058
1715694100396800500,3.810800537109375,-0.02518930844962597,-0.01940828748047352,-0.025359489023685455,-0.17396675050258636,-0.6341006755828857,-0.753426730632782,0.02401868999004364,0.001059412956237793,-0.025229275226593018,0.9257571618903728,0.3487072518257067,-0.041108081247697464,0.14031045899260103
1715694100406790400,3.820790283203125,-0.014087654650211334,-0.012251575477421284,-0.01437714695930481,-0.1738732010126114,-0.6339597105979919,-0.7535669803619385,0.021773651242256165,0.004717826843261719,-0.0284917950630188,0.9258157452425418,0.34860507013109454,-0.041121920240247356,0.14017374707751168
1715694100416779500,3.830779541015625,-0.0013112463057041168,-0.014131234027445316,-0.01288637612015009,-0.17379243671894073,-0.6338905096054077,-0.7536438703536987,0.021265625953674316,0.005274176597595215,-0.032580554485321045,0.9258507526108699,0.3485501157334958,-0.041120496102383775,0.1400796507657336
1715694100426768600,3.8407685546875,0.012198969721794128,-0.012285131961107254,-0.007815451361238956,-0.17370517551898956,-0.6339058876037598,-0.7536510229110718,0.021041035652160645,0.003244936466217041,-0.0380207896232605,0.9258660553247332,0.34854663726098445,-0.041106499896296556,0.13999123528885116
1715694100436758500,3.850758544921875,0.01835172437131405,-0.007004882209002972,-0.005225593224167824,-0.17359255254268646,-0.6339957118034363,-0.7536013722419739,0.024361655116081238,0.004128217697143555,-0.0391843318939209,0.9258627264390178,0.34858712566473593,-0.041064922957470135,0.13992426009030184
1715694100446747600,3.86074755859375,0.01945001259446144,0.004414486698806286,-0.006019216030836105,-0.1733914017677307,-0.6340857148170471,-0.7535719871520996,0.02264988422393799,0.0049811601638793945,-0.037642061710357666,0.9258633644940581,0.3486190650069545,-0.04097265521876356,0.13986791902236795
1715694100456737500,3.870737548828125,0.015414256602525711,0.013700395822525024,-0.002207299927249551,-0.173117533326149,-0.6341619491577148,-0.7535707950592041,0.020605996251106262,0.007147789001464844,-0.0356595516204834,0.925866048229812,0.3486367031607317,-0.040829431149148804,0.13984810617072507
1715694100466726700,3.8807265625,0.008433579467236996,0.014917194843292236,-0.008404741995036602,-0.17282350361347198,-0.6341959238052368,-0.7536097168922424,0.017305970191955566,0.004007935523986816,-0.030158042907714844,0.9258782953893563,0.34862674842124175,-0.04067600974721963,0.1398364141217059
1715694100476715500,3.890715576171875,0.0017877668142318726,0.01680138148367405,-0.004293553531169891,-0.17252710461616516,-0.6341764330863953,-0.7536939978599548,0.015392154455184937,0.0008757114410400391,-0.02787649631500244,0.9259044467489315,0.34858332065319775,-0.04052968973794133,0.13981430615715834
1715694100486705700,3.90070556640625,0.006768943276256323,0.020557237789034843,-0.009478995576500893,-0.17223294079303741,-0.6341249942779541,-0.7538045644760132,0.017203688621520996,-0.0007778406143188477,-0.024088561534881592,0.9259370245310092,0.34852075898148216,-0.040385675315616903,0.13979620397938902
1715694100496694500,3.910694580078125,0.017550325021147728,0.025810590013861656,0.005413135979324579,-0.1719418466091156,-0.6341108679771423,-0.753882884979248,0.016637936234474182,-0.0007920265197753906,-0.020699024200439453,0.9259541331890473,0.3484833313221851,-0.04022337119541841,0.13982283347881547
1715694100506683600,3.92068359375,0.03770406171679497,0.03967660292983055,0.013468665070831776,-0.1716531664133072,-0.6341978311538696,-0.7538755536079407,0.013587415218353271,-0.002337813377380371,-0.0181124210357666,0.9259368195008604,0.3485113514139172,-0.04002592679014216,0.13992400082001327
1715694100516673500,3.930673583984375,0.046463415026664734,0.04905092716217041,0.014491518959403038,-0.17129527032375336,-0.6343814730644226,-0.7538024187088013,0.008117839694023132,0.000012636184692382812,-0.018429696559906006,0.9258960490086745,0.34859312980500484,-0.039769538353243566,0.14006350175852594
1715694100526662700,3.94066259765625,0.04395657777786255,0.058765873312950134,0.006374203599989414,-0.17083419859409332,-0.6346203684806824,-0.7537059187889099,0.003124922513961792,0.008552372455596924,-0.017686903476715088,0.925848959682876,0.34869812343366335,-0.039454612726969346,0.14020174906312094
1715694100536652500,3.950652587890625,0.03432174026966095,0.05093751102685928,0.010876011103391647,-0.17038069665431976,-0.6347879767417908,-0.7536674737930298,0.0015727877616882324,0.012565135955810547,-0.012659430503845215,0.9258172853527916,0.34876016594784115,-0.039148615213561416,0.14034251995102326
1715694100546641700,3.9606416015625,0.013330706395208836,0.041452132165431976,0.012027828022837639,-0.1700371950864792,-0.6348496079444885,-0.753693163394928,0.005562782287597656,0.007072567939758301,-0.009032726287841797,0.9258034542291377,0.34876838081581296,-0.03891074059602939,0.1404797730398642
1715694100556630500,3.970630615234375,0.009338734671473503,0.040068618953228,0.010901111178100109,-0.16971491277217865,-0.634818971157074,-0.7537915706634521,0.010275885462760925,0.00022125244140625,-0.004066765308380127,0.9258111415374009,0.3487216556959107,-0.0386965076642338,0.14060439655658674
1715694100566620700,3.98062060546875,0.020898982882499695,0.03477931395173073,0.009021452628076077,-0.1694163829088211,-0.6348414421081543,-0.7538397908210754,0.011442184448242188,-0.004837453365325928,-0.001424551010131836,0.9258088219430558,0.34870890886356276,-0.03849919918518371,0.1407055925195183
1715694100576609500,3.990609619140625,0.039212048053741455,0.038614001125097275,-0.0006131317932158709,-0.16907712817192078,-0.6349925994873047,-0.7537885904312134,0.010477334260940552,-0.0021685361862182617,-0.000056624412536621094,0.9257824066813936,0.3487701006694076,-0.03827692664159155,0.14078747066540276
1715694100586599700,4.000599609375,0.05084074288606644,0.04239329323172569,-0.00574557576328516,-0.16866673529148102,-0.6352961659431458,-0.7536247372627258,0.0085563063621521,0.009151875972747803,0.00124436616897583,0.9257294492291898,0.3489163147653106,-0.03801366358207292,0.14084465748091074
1715694100596588500,4.010588623046875,0.05218564346432686,0.038494955748319626,-0.0018084916519001126,-0.1682705581188202,-0.6356130838394165,-0.7534460425376892,0.007000476121902466,0.016106367111206055,0.003110349178314209,0.9256731398690554,0.3490720351851899,-0.03775827783822125,0.14089772993641542
1715694100606577700,4.02057763671875,0.04444010555744171,0.02908388152718544,0.00035665836185216904,-0.16800451278686523,-0.6358481049537659,-0.7533071041107178,0.00568157434463501,0.016768574714660645,0.0048635005950927734,0.9256232797269075,0.3491920643324969,-0.03756785085561426,0.14097852244916337
1715694100616567600,4.030567626953125,0.051062796264886856,0.031094035133719444,-0.0009816467063501477,-0.16779740154743195,-0.6360711455345154,-0.7531650066375732,0.004406332969665527,0.011284828186035156,0.005621612071990967,0.9255736638501637,0.34931054160151315,-0.03741194502950099,0.1410526851136676
1715694100626556700,4.040556640625,0.050031621009111404,0.034049876034259796,0.0022833887487649918,-0.1675310581922531,-0.6363474130630493,-0.7529909610748291,0.0026904046535491943,0.012705504894256592,0.005188167095184326,0.9255158881382909,0.3494554174725372,-0.0372215236349393,0.14112362425878672
1715694100636545500,4.050545654296875,0.043025217950344086,0.026707010343670845,0.009349221363663673,-0.1672677844762802,-0.6366685628890991,-0.7527778744697571,-0.0007619261741638184,0.015498638153076172,0.00419694185256958,0.9254452448727358,0.3496288249963936,-0.03702350221937051,0.1412088114470475
1715694100646535700,4.06053564453125,0.038322076201438904,0.020448047667741776,0.008990493603050709,-0.16707295179367065,-0.636962354183197,-0.7525725960731506,0.00008083879947662354,0.019256174564361572,0.0036559700965881348,0.9253769132612819,0.34979241056518917,-0.036864138502880894,0.1412930988830416
1715694100656524500,4.070524658203125,0.04641079157590866,0.020880013704299927,0.011805920861661434,-0.16689620912075043,-0.6372683048248291,-0.752352774143219,0.0014299750328063965,0.023147881031036377,0.006457388401031494,0.9253064949089795,0.34996486684098665,-0.036717791437061637,0.14136531647894257
1715694100666513700,4.080513671875,0.043110333383083344,0.017993412911891937,0.017913615331053734,-0.16678550839424133,-0.6375225782394409,-0.7521618604660034,0.0005563199520111084,0.02758312225341797,0.008204340934753418,0.925239470667373,0.3501135969611534,-0.03659968615296727,0.14146630493669804
1715694100676503600,4.090503662109375,0.04094603657722473,0.012323008850216866,0.024213921278715134,-0.16677454113960266,-0.6377201080322266,-0.7519968748092651,0.00010281801223754883,0.027383863925933838,0.005124866962432861,0.9251764415763907,0.350238518540359,-0.03653139591675339,0.14158716851248998
1715694100686492700,4.10049267578125,0.034160833805799484,0.007533048279583454,0.029829461127519608,-0.1668512374162674,-0.6378804445266724,-0.7518438696861267,0.0012476593255996704,0.02603358030319214,0.005627989768981934,0.9251125035445529,0.35035075708093016,-0.036502139000860356,0.14173520427113012
1715694100696482600,4.110482666015625,0.026961244642734528,-0.00017627072520554066,0.03218189999461174,-0.16700813174247742,-0.6380296945571899,-0.7516824007034302,0.0033271610736846924,0.025694549083709717,0.011142849922180176,0.9250454231531822,0.3504647046005669,-0.0365141621517695,0.1418882007869417
1715694100706471700,4.1204716796875,0.015006580390036106,-0.006321781314909458,0.040387365967035294,-0.1672566682100296,-0.638098418712616,-0.7515687942504883,0.007298827171325684,0.021490812301635742,0.013302743434906006,0.9249897942589754,0.35053912497354006,-0.03657779562332303,0.14205046127865206
1715694100716460500,4.13046044921875,0.0005457224324345589,-0.020353443920612335,0.0427812784910202,-0.16763056814670563,-0.638030469417572,-0.7515431642532349,0.009870007634162903,0.016631603240966797,0.013673901557922363,0.9249575977272072,0.3505426968906413,-0.036718232761768416,0.1422151216943378
1715694100726450700,4.14045068359375,-0.005217891186475754,-0.035459160804748535,0.041837453842163086,-0.16814245283603668,-0.6378830075263977,-0.7515539526939392,0.011999338865280151,0.01269996166229248,0.016476988792419434,0.9249367742442426,0.35051147092109225,-0.036942357368173945,0.14236876226065298
1715694100736439600,4.150439453125,-0.004948432557284832,-0.03098425082862377,0.043479494750499725,-0.16867953538894653,-0.6377080082893372,-0.7515820860862732,0.012322783470153809,0.009137570858001709,0.014597833156585693,0.9249220412947773,0.35046568102634995,-0.03718534947445645,0.14251385401776534
1715694100746429700,4.1604296875,-0.001440250314772129,-0.03236989304423332,0.03886530175805092,-0.16919636726379395,-0.6375499963760376,-0.7516000270843506,0.007682144641876221,0.008933722972869873,0.012830495834350586,0.924906362615427,0.3504278493445859,-0.03742076554872964,0.1426469881711152
1715694100756418600,4.17041845703125,-0.004333987832069397,-0.025836626067757607,0.03666433319449425,-0.16965670883655548,-0.6374180316925049,-0.75160813331604,0.0019626617431640625,0.012357115745544434,0.008917093276977539,0.9248891734127616,0.35039996773707577,-0.03762700095805854,0.14277268779036384
1715694100766407400,4.180407470703125,-0.01740691438317299,-0.021483689546585083,0.03551997244358063,-0.1700623631477356,-0.637224018573761,-0.7516809701919556,-0.002224549651145935,0.014131426811218262,0.007296204566955566,0.9248899284448745,0.350328197399157,-0.0378108469552417,0.14289547269616287
1715694100776397600,4.1903974609375,-0.02806275337934494,-0.058499231934547424,0.034240856766700745,-0.17054124176502228,-0.6369144320487976,-0.7518349289894104,-0.0015625804662704468,0.011151552200317383,0.008533477783203125,0.9249146468475896,0.35019264263906247,-0.038048159271341975,0.14300506676473668
1715694100786386400,4.200386474609375,0.0581488311290741,0.04965786263346672,0.08204619586467743,-0.171347975730896,-0.6372836232185364,-0.7513384222984314,-0.00040490925312042236,0.004471182823181152,0.007380843162536621,0.9247546022786794,0.3505108642731357,-0.03837856074931889,0.14317170446292393
1715694100796375600,4.21037548828125,-0.15826481580734253,0.025910457596182823,0.13573990762233734,-0.17161522805690765,-0.6365445256233215,-0.7519038319587708,0.0008694231510162354,-0.004187226295471191,0.011577844619750977,0.9248248182844266,0.35010713495292917,-0.03838084951622028,0.14370473623262703
1715694100806365400,4.220365478515625,0.0028998497873544693,-0.0676429271697998,0.1678278148174286,-0.17273466289043427,-0.6357094645500183,-0.7523537874221802,-0.01027919352054596,-0.024263620376586914,0.0457497239112854,0.9248373856278027,0.34974191810265043,-0.03877765858622406,0.1444044816261955
1715694100816354600,4.2303544921875,0.003691981080919504,-0.13040991127490997,0.030682871118187904,-0.17415884137153625,-0.6356356739997864,-0.7520877718925476,-0.03781619668006897,-0.05267298221588135,0.05341827869415283,0.9247221964988903,0.3498591694872118,-0.03942951605567452,0.14468128838743938
1715694100826344400,4.240344482421875,-0.015087299980223179,-0.06372382491827011,-0.045239321887493134,-0.1747542917728424,-0.6356455683708191,-0.7519412040710449,0.010997027158737183,0.010142087936401367,0.04982328414916992,0.9247231242777054,0.34991731250016667,-0.03984045414650286,0.14442199833993774
1715694100836333600,4.25033349609375,-0.02192741632461548,-0.03644799441099167,-0.03737960383296013,-0.17480647563934326,-0.635552167892456,-0.7520080208778381,0.031206071376800537,0.050850749015808105,0.033044397830963135,0.924785749269491,0.3498531867231385,-0.03998408185619892,0.144136259772907
1715694100846322400,4.260322509765625,0.014295303262770176,-0.04849586635828018,-0.052043233066797256,-0.1748466193675995,-0.6356014013290405,-0.7519571781158447,-0.0013770759105682373,0.007107138633728027,0.04054659605026245,0.924814394855747,0.3498758327785403,-0.040103879881818405,0.14386437081265396
1715694100856312600,4.2703125,0.03289865702390671,-0.030382642522454262,-0.06209114193916321,-0.17481452226638794,-0.6358873844146729,-0.7517227530479431,-0.02344287931919098,0.002296745777130127,0.03304898738861084,0.9248037523990863,0.3500332927311955,-0.04019115882776064,0.1435244261570885
1715694100866301400,4.280301513671875,-0.003298497758805752,-0.03576888516545296,-0.08030183613300323,-0.17455518245697021,-0.6361649036407471,-0.751548171043396,-0.01439434289932251,0.016948044300079346,0.015235304832458496,0.9248165579434402,0.35015953638187197,-0.0401771659950933,0.14313784914697142
1715694100876291600,4.29029150390625,-0.07936742901802063,-0.08690637350082397,-0.0960770696401596,-0.17441889643669128,-0.6360604763031006,-0.7516682147979736,-0.00465819239616394,0.006040394306182861,-0.002054929733276367,0.9249297716750267,0.3500582988089766,-0.04031225352898202,0.14261466399558187
1715694100886280400,4.300280517578125,-0.20918215811252594,-0.17139889299869537,-0.1223163977265358,-0.17472945153713226,-0.635357677936554,-0.7521902918815613,-0.005263179540634155,-0.01399528980255127,-0.015403151512145996,0.9251874958711672,0.34962609870398165,-0.040822090209608114,0.14185621702477857
1715694100896269600,4.31026953125,-0.26055097579956055,-0.2644087076187134,-0.12507782876491547,-0.17570555210113525,-0.6340469717979431,-0.7530684471130371,0.01020878553390503,-0.03357076644897461,-0.017103731632232666,0.9255810937631261,0.3488779679781222,-0.041832356666093334,0.14083301773290907
1715694100906259500,4.320259521484375,-0.14320889115333557,-0.21840500831604004,-0.07342715561389923,-0.17694467306137085,-0.6328216195106506,-0.7538085579872131,0.03055189549922943,-0.04918515682220459,-0.019094884395599365,0.9259227702494149,0.34821250602766834,-0.04293900574284504,0.13989771750580998
