time,seconds_elapsed,rotationRateX,rotationRateY,rotationRateZ,gravityX,gravityY,gravityZ,accelerationX,accelerationY,accelerationZ,quaternionW,quaternionX,quaternionY,quaternionZ
1714155309084314000,0.045314208984375,-0.05856134742498398,-0.015526611357927322,0.0006367235910147429,-0.8856602907180786,0.1548093557357788,-0.43776676058769226,-0.0029198527336120605,-0.018166914582252502,0.00708732008934021,0.8478698266863327,-0.09129311403026497,-0.5222855468175207,-5.551115123125783e-17
1714155309094303200,0.05530322265625,-0.05342884734272957,-0.018508819863200188,-0.004450313746929169,-0.8857465386390686,0.1551397293806076,-0.4374753534793854,-0.001613020896911621,-0.013278782367706299,0.005254805088043213,0.8477839373915874,-0.09157350472803694,-0.522375933308886,-0.00012382190221571499
1714155309104293000,0.065293212890625,-0.03795987740159035,-0.01797565445303917,-0.0038910498842597008,-0.8858482241630554,0.15540622174739838,-0.43717488646507263,-0.0027778148651123047,-0.0036575794219970703,0.00033092498779296875,0.8476953397201665,-0.0918055982894746,-0.5224789854955865,-0.000229798356915778
1714155309114282200,0.0752822265625,-0.03329428285360336,-0.02651747688651085,-0.007101557217538357,-0.8859653472900391,0.15551677346229553,-0.43689805269241333,-0.005010545253753662,0.0025642812252044678,-0.006095230579376221,0.847613604377276,-0.09195065927132309,-0.5225859328367101,-0.00034491220932580946
1714155309124272000,0.085272216796875,-0.02660096250474453,-0.0259824488312006,-0.00547942565754056,-0.8861110210418701,0.15549391508102417,-0.4366106390953064,-0.001202702522277832,0.00304490327835083,-0.007176101207733154,0.8475288089887038,-0.09202053993461251,-0.5227111121377708,-0.00046507465209683074
1714155309134261200,0.09526123046875,-0.006135955452919006,-0.03199160471558571,-0.002493089996278286,-0.8862749338150024,0.1553490310907364,-0.43632951378822327,0.0015704035758972168,0.004807204008102417,-0.0040850043296813965,0.8474458203696182,-0.09200655725296725,-0.5228480058076755,-0.000566234417269107
1714155309144251100,0.105251220703125,0.01354800071567297,-0.024768047034740448,-0.0026171933859586716,-0.8864572048187256,0.15505394339561462,-0.43606406450271606,0.0018595457077026367,0.008367687463760376,-0.0038164258003234863,0.8473674833847956,-0.0918766645654707,-0.5229977493694222,-0.0006239528065637434
1714155309154240300,0.115240234375,0.029360253363847733,-0.016224892809987068,-0.006097079254686832,-0.8866040110588074,0.15467429161071777,-0.43590041995048523,-0.0006487369537353516,0.014667719602584839,-0.007306516170501709,0.8473191482699269,-0.09167023514711761,-0.5231121911477115,-0.0006438322416830733
1714155309164234200,0.125234130859375,0.046827394515275955,-0.0054670535027980804,-0.011973077431321144,-0.8867044448852539,0.15420164167881012,-0.4358637034893036,-0.005202353000640869,0.01881776750087738,-0.01089826226234436,0.8473086600267847,-0.09099496310051663,-0.52324761097378,-5.551115123125783e-17
1714155309174223000,0.13522314453125,0.058946482837200165,0.009715893305838108,-0.020149582996964455,-0.8867560029029846,0.15367618203163147,-0.43594446778297424,-0.009972631931304932,0.01624569296836853,-0.016020774841308594,0.8473325046786602,-0.09066595181016615,-0.5232661332787659,0.000026527729477587858
1714155309184213200,0.145213134765625,0.062384624034166336,0.02155870571732521,-0.0162107665091753,-0.8867185711860657,0.15322250127792358,-0.4361801743507385,-0.010544061660766602,0.012091219425201416,-0.0167921781539917,0.847402027003358,-0.09035248200641541,-0.5232077486031388,0.00008863318858237657
1714155309194202000,0.1552021484375,0.07369187474250793,0.027661604806780815,-0.011696841567754745,-0.8866106867790222,0.15284186601638794,-0.43653279542922974,-0.007050812244415283,0.006368353962898254,-0.0117550790309906,0.8475059905217641,-0.09004025862488274,-0.5230930698556396,0.00021272417312817593
1714155309204192300,0.165192138671875,0.07617606967687607,0.025853052735328674,-0.004926287103444338,-0.8864801526069641,0.15249352157115936,-0.43691959977149963,-0.002146005630493164,0.0031155794858932495,-0.004318684339523315,0.8476200156197239,-0.0897209770155443,-0.5229630438885657,0.00037758930098824584
1714155309214181000,0.17518115234375,0.074519582092762,0.02450788952410221,0.006437954492866993,-0.8863430023193359,0.15226908028125763,-0.43727609515190125,0.003255784511566162,0.0029585659503936768,0.0008137822151184082,0.8477250844219153,-0.08944595806225977,-0.5228397266146578,0.0005909231733632891
1714155309224171300,0.185171142578125,0.0660611167550087,0.017068615183234215,0.011348290368914604,-0.8862147927284241,0.1521569788455963,-0.4375747740268707,0.006804943084716797,0.0020635873079299927,0.0032182037830352783,0.8478129142359256,-0.08921827461387974,-0.5227357907878601,0.0008380646249493418
1714155309234160000,0.19516015625,0.05436456948518753,0.0024209627881646156,0.01571294479072094,-0.8861153721809387,0.15221872925758362,-0.43775469064712524,0.008887529373168945,-0.0046204328536987305,0.0035659074783325195,0.8478656923055219,-0.0890786960300399,-0.5226735543940715,0.0011146390580949461
1714155309244150300,0.205150390625,0.03930865228176117,-0.020349863916635513,0.020149771124124527,-0.8860803246498108,0.15240618586540222,-0.4377603530883789,0.010195255279541016,-0.011537045240402222,0.002778172492980957,0.8478669255088667,-0.089024085428181,-0.5226801467009541,0.0013823312392320375
1714155309254139100,0.21513916015625,0.03631281107664108,-0.036786891520023346,0.02152509242296219,-0.8861236572265625,0.15258723497390747,-0.43760955333709717,0.011245667934417725,-0.01299983263015747,0.004321038722991943,0.8478220657937394,-0.08898696418031285,-0.5227585964048973,0.0016231280870332432
1714155309264129300,0.22512939453125,0.03167011961340904,-0.04711729660630226,0.015099951066076756,-0.8862457871437073,0.15271489322185516,-0.43731778860092163,0.00939929485321045,-0.007802143692970276,0.0006723403930664062,0.8477356523696697,-0.08893877394860936,-0.5229063011109396,0.0018375705659781083
1714155309274118100,0.2351181640625,0.03445067256689072,-0.0489298440515995,0.014612460508942604,-0.8864133358001709,0.1527579128742218,-0.4369628429412842,0.005035102367401123,0.0015847235918045044,0.0013702809810638428,0.8476304444257264,-0.08885767000680075,-0.5230897585309437,0.0020273641111264173
1714155309284108300,0.2451083984375,0.03514948487281799,-0.044544681906700134,0.011174052953720093,-0.8865945339202881,0.15273967385292053,-0.436601459980011,0.0033699870109558105,0.005432933568954468,0.0009325742721557617,0.847523442827157,-0.08875066218039604,-0.523280610581513,0.0022006748772758766
1714155309294097200,0.25509716796875,0.02582799643278122,-0.03716159984469414,0.002866721246391535,-0.8867500424385071,0.15271304547786713,-0.4362947344779968,-0.00121992826461792,0.0050017982721328735,-0.003982275724411011,0.8474325189844085,-0.08865770612403603,-0.5234428775822555,0.0023404681845253794
1714155309304087000,0.265087158203125,0.028395015746355057,-0.025792032480239868,-0.0015258964849635959,-0.8868828415870667,0.15263669192790985,-0.43605154752731323,-0.003620147705078125,0.005184948444366455,-0.003859221935272217,0.847360572932844,-0.08856425988222758,-0.5235748249201105,0.0024303827220761853
1714155309314076200,0.275076171875,0.04338105022907257,-0.01611756719648838,-0.006884442642331123,-0.8869802951812744,0.15240608155727386,-0.4359339773654938,-0.009290516376495361,0.002745300531387329,-0.0031375885009765625,0.8473256888319649,-0.08838936299084216,-0.5236605172582712,0.0024986867671307755
1714155309324066000,0.285066162109375,0.07384654879570007,0.0022675646468997,-0.009572637267410755,-0.8870300650596619,0.1519487053155899,-0.43599238991737366,-0.015374839305877686,0.003721475601196289,-0.00635981559753418,0.8473426579935144,-0.08806664201631312,-0.5236870027156734,0.002581176030959975
1714155309334055200,0.29505517578125,0.10604262351989746,0.011024837382137775,-0.014180571772158146,-0.887016236782074,0.1513248085975647,-0.4362372159957886,-0.020515501499176025,0.011349156498908997,-0.007122069597244263,0.8474143877338267,-0.08760495050705033,-0.5236475566563937,0.002720734848348727
1714155309344045000,0.305045166015625,0.1407310962677002,0.019457736983895302,-0.023818818852305412,-0.8869748711585999,0.15055596828460693,-0.436587393283844,-0.020068645477294922,0.015810593962669373,-0.006420940160751343,0.8475169983095032,-0.0870041447404197,-0.5235805416620333,0.0029422274591101027
1714155309354034200,0.3150341796875,0.17029251158237457,0.03702687844634056,-0.019624872133135796,-0.8868695497512817,0.1497543901205063,-0.4370766580104828,-0.02096736431121826,0.016307011246681213,-0.005641728639602661,0.8476601361431348,-0.08631721722084165,-0.5234606034876608,0.0032658224199106356
1714155309364024000,0.325024169921875,0.188064843416214,0.04939086735248566,-0.01646636426448822,-0.8866982460021973,0.1489148736000061,-0.43771064281463623,-0.01933819055557251,0.008952543139457703,0.0005159676074981689,0.8478453848145028,-0.08554782564744481,-0.5232840966014147,0.0036808030889597942
1714155309374013200,0.33501318359375,0.17947188019752502,0.05350598320364952,-0.014824657700955868,-0.8864840865135193,0.1480587124824524,-0.43843430280685425,-0.01579868793487549,-0.0026272088289260864,0.0062445104122161865,0.8480568414295961,-0.08476460886711751,-0.523065772600165,0.00409919748004145
1714155309384003000,0.345003173828125,0.15755778551101685,0.041918039321899414,-0.009862655773758888,-0.8862791657447815,0.14731520414352417,-0.439098596572876,-0.009793281555175781,-0.01084059476852417,0.016262412071228027,0.8482506283291319,-0.0840577668999331,-0.5228623050244869,0.00450510157028039
1714155309393992200,0.3549921875,0.11990490555763245,0.0284712053835392,-0.0039670164696872234,-0.8861308097839355,0.14673207700252533,-0.43959298729896545,-0.0027394890785217285,-0.01770375669002533,0.023318082094192505,0.8483944542682599,-0.08349194525135456,-0.5227165551052203,0.004843800363665052
1714155309403982000,0.364982177734375,0.08920212090015411,-0.005869457498192787,0.00019763479940593243,-0.8860840201377869,0.146329864859581,-0.43982139229774475,0.003072977066040039,-0.023450806736946106,0.02952784299850464,0.848460153809065,-0.08307724510867062,-0.5226733894071174,0.0051221287926661585
1714155309413971200,0.37497119140625,0.04480578750371933,-0.042441051453351974,-0.0010880728950724006,-0.8861815333366394,0.14616239070892334,-0.43968045711517334,0.008740067481994629,-0.02790677547454834,0.031782567501068115,0.8484171800970707,-0.08284358369718167,-0.5227778768878516,0.0053469721831844175
1714155309423961000,0.384961181640625,0.007103683426976204,-0.057111337780952454,-0.005696140229701996,-0.8864046335220337,0.14620380103588104,-0.4392167627811432,0.011663973331451416,-0.02614763379096985,0.03302788734436035,0.8482797702862129,-0.08280451594739627,-0.5230057656439537,0.005469354698350248
1714155309433950200,0.3949501953125,-0.026169903576374054,-0.069407157599926,-0.011863554827868938,-0.8866923451423645,0.14634719491004944,-0.43858781456947327,0.0070383548736572266,-0.01876842975616455,0.02806544303894043,0.8480942990671752,-0.08289829986336292,-0.5232914762917105,0.005480737279600856
1714155309443940000,0.404940185546875,-0.04274595156311989,-0.08305905759334564,-0.016577349975705147,-0.887067973613739,0.14645075798034668,-0.43779298663139343,0.002149641513824463,-0.01357722282409668,0.019290268421173096,0.8478605671812944,-0.08303763433225511,-0.5236489864692031,0.005387283991179992
1714155309453929200,0.41492919921875,-0.0728897899389267,-0.08122440427541733,-0.02173522859811783,-0.887489378452301,0.1465056985616684,-0.43691956996917725,0.00092315673828125,-0.016851752996444702,0.010695934295654297,0.8476042804142372,-0.08322042395857987,-0.5240368033392901,0.005180663410743025
1714155309463919000,0.424919189453125,-0.09082058817148209,-0.07155100256204605,-0.03269972652196884,-0.8879157900810242,0.14652179181575775,-0.4360469877719879,-0.0022820234298706055,-0.013800844550132751,0.008266955614089966,0.8473487922542452,-0.08345706727045882,-0.524415322786967,0.004850445630826983
1714155309473908200,0.434908203125,-0.1068129763007164,-0.0588248185813427,-0.03797025606036186,-0.8883156776428223,0.14645925164222717,-0.43525269627571106,-0.00581890344619751,-0.006978660821914673,0.0039020776748657227,0.8471168038007839,-0.08371168595518008,-0.524753274422562,0.004413603407342204
1714155309483898000,0.444898193359375,-0.09837954491376877,-0.045213401317596436,-0.04196872562170029,-0.8886749148368835,0.14633560180664062,-0.4345605671405792,-0.00918281078338623,-0.0014838874340057373,-0.0027104616165161133,0.8469148935899129,-0.0839531262938322,-0.5250443751829388,0.003936134181442619
1714155309493887200,0.45488720703125,-0.07434483617544174,-0.030902903527021408,-0.03306817635893822,-0.8889747858047485,0.14614111185073853,-0.434012234210968,-0.009935736656188965,0.0011977404356002808,-0.004815191030502319,0.8467549291574605,-0.08412436574568577,-0.5252779987714767,0.0034987882562410033
1714155309503877000,0.464877197265625,-0.04130139946937561,-0.02833561785519123,-0.03284100815653801,-0.8892271518707275,0.14586535096168518,-0.433587908744812,-0.007806658744812012,0.004998296499252319,-0.008489608764648438,0.846631021025055,-0.08418531839318263,-0.5254701513939675,0.0031567469511431523
1714155309513866200,0.4748662109375,-0.009231293573975563,-0.02033122070133686,-0.033167313784360886,-0.8894476294517517,0.14552424848079681,-0.43325015902519226,-0.008867919445037842,0.012968778610229492,-0.008949458599090576,0.846532129654185,-0.08414343343564895,-0.5256375247304369,0.002914564272801068
1714155309523856100,0.484856201171875,0.026540551334619522,-0.002068860223516822,-0.040744274854660034,-0.8895962238311768,0.14505326747894287,-0.43310290575027466,-0.013510525226593018,0.023739486932754517,-0.009050965309143066,0.8464891379883493,-0.08396587587308096,-0.5257359443921537,0.002758853764480651
1714155309533845200,0.49484521484375,0.06254889070987701,0.014824368990957737,-0.051251839846372604,-0.8896575570106506,0.1443244069814682,-0.4332205057144165,-0.021231234073638916,0.024651408195495605,-0.011344194412231445,0.846524249484478,-0.08360216223527911,-0.525737984364384,0.002645707403463926
1714155309543835100,0.504835205078125,0.10307127982378006,0.0271524079144001,-0.07728104293346405,-0.889682412147522,0.14328612387180328,-0.4335140585899353,-0.027523517608642578,0.019494622945785522,-0.014468610286712646,0.8466112711741216,-0.08303776471092628,-0.525687838543895,0.002553525512135446
1714155309553824300,0.51482421875,0.13761891424655914,0.05074002593755722,-0.09802653640508652,-0.8896649479866028,0.1419246345758438,-0.43399757146835327,-0.030714809894561768,0.017941683530807495,-0.017372548580169678,0.8467543167397686,-0.08227706155061273,-0.525577489951897,0.002461788674755272
1714155309563814100,0.524814208984375,0.16050027310848236,0.07365492731332779,-0.10021991282701492,-0.8895286917686462,0.1403854787349701,-0.4347764849662781,-0.039670586585998535,0.019755512475967407,-0.024055182933807373,0.8469843135477482,-0.0813796854191072,-0.5253466494341643,0.0024087349269779623
1714155309573803300,0.53480322265625,0.12155148386955261,0.07166660577058792,-0.012824357487261295,-0.8893128037452698,0.1392386257648468,-0.43558627367019653,-0.0589752197265625,0.015073508024215698,-0.038076937198638916,0.8472230577399283,-0.08062592939260108,-0.5250774479505375,0.002497097901560552
1714155309583793200,0.544793212890625,0.039494432508945465,0.1346980333328247,0.019103748723864555,-0.888796329498291,0.1389622688293457,-0.4367273449897766,-0.08601158857345581,0.0024409443140029907,-0.03901118040084839,0.8475591035413418,-0.08029639362794411,-0.5245844278242388,0.0027168104223275757
1714155309593782300,0.5547822265625,-0.059837210923433304,0.16106067597866058,0.08517983555793762,-0.8880892992019653,0.13948680460453033,-0.43799665570259094,-0.11035442352294922,-0.00871896743774414,-0.026129841804504395,0.8479330357533489,-0.08049202618740103,-0.5239491496847147,0.002846750303016621
1714155309603772200,0.564772216796875,-0.15285369753837585,0.1810213327407837,0.08466504514217377,-0.8872087597846985,0.14081832766532898,-0.43935272097587585,-0.1321089267730713,-0.0072428882122039795,-0.028542697429656982,0.8483325040568845,-0.08121743141249957,-0.5231896140907681,0.0028857168814951373
1714155309613762000,0.574761962890625,-0.24644263088703156,0.2244737297296524,0.020563427358865738,-0.8862084150314331,0.1421787589788437,-0.44093069434165955,-0.15183180570602417,0.002474561333656311,-0.0626244843006134,0.8487984854158908,-0.08218836872648563,-0.5222831879958245,0.0025427082384557043
1714155309623751200,0.584751220703125,-0.36231330037117004,0.20532001554965973,0.0642150342464447,-0.8852548003196716,0.14381203055381775,-0.44231438636779785,-0.19183266162872314,0.012087017297744751,-0.1068035364151001,0.8492078828225352,-0.08357795209849445,-0.5213995877724524,0.0017855035495759064
1714155309633740300,0.594740234375,-0.427139014005661,0.4240281283855438,0.18424350023269653,-0.8838125467300415,0.1466999053955078,-0.4442460536956787,-0.22647804021835327,0.032224640250205994,-0.15408149361610413,0.8497773498744178,-0.08557515852621064,-0.5201479332003218,0.001211428474383991
1714155309643730200,0.604730224609375,-0.5650079250335693,0.48662546277046204,0.37718313932418823,-0.8812636733055115,0.15123096108436584,-0.44777625799179077,-0.2596818208694458,0.008482769131660461,-0.2070697844028473,0.8508157509842091,-0.08835440475690323,-0.5179820105535353,0.0008536257111471657
1714155309653720000,0.614719970703125,-0.6206514835357666,0.6146867275238037,0.4755230247974396,-0.8781258463859558,0.1578846275806427,-0.4516277015209198,-0.36374127864837646,-0.0461597740650177,-0.21327394247055054,0.8519466442579999,-0.09209273173796384,-0.5154658901459301,0.0009393884609236736
1714155309663709200,0.624709228515625,-0.6397407650947571,0.9422286748886108,0.6277061700820923,-0.8737446665763855,0.16538342833518982,-0.4574042558670044,-0.4555400609970093,-0.04508313536643982,-0.20291978120803833,0.8536396764200364,-0.09613868624942859,-0.5119133015314399,0.0012187965441371462
1714155309673698300,0.6346982421875,-0.6254392266273499,1.0253331661224365,0.7761715650558472,-0.867959201335907,0.17453666031360626,-0.46495571732521057,-0.4671391248703003,-0.008047997951507568,-0.23339319229125977,0.8558465352329361,-0.10069012308398967,-0.5073299099940466,0.0021544876942255486
1714155309683688200,0.644688232421875,-0.5775792598724365,1.0846995115280151,0.9108593463897705,-0.8615124821662903,0.18464484810829163,-0.47297200560569763,-0.4307696223258972,0.04625116288661957,-0.2550857365131378,0.8581798253666448,-0.10543409159873446,-0.5023919264583621,0.0036644998546077057
1714155309693678000,0.654677978515625,-0.4176442325115204,1.1540641784667969,1.0893464088439941,-0.8542609214782715,0.19565828144550323,-0.48161816596984863,-0.448275089263916,0.07486478984355927,-0.27646884322166443,0.8606807904765326,-0.11012049095735488,-0.49705572083012806,0.006137244837615852
1714155309703667200,0.664667236328125,-0.33610329031944275,1.277199149131775,1.1665290594100952,-0.8460805416107178,0.2070557177066803,-0.4911983013153076,-0.4909404516220093,0.12038266658782959,-0.33074676990509033,0.8634296473899434,-0.11455154737422787,-0.49120137024286686,0.009406844180128104
1714155309713657000,0.674656982421875,-0.3100997805595398,1.4549801349639893,1.2819122076034546,-0.836717426776886,0.21894200146198273,-0.5019646286964417,-0.5860427021980286,0.17957179248332977,-0.3744391202926636,0.866493413521138,-0.11901241684211267,-0.4846171088247292,0.013098025306797212
1714155309723646200,0.684646240234375,-0.30629172921180725,1.703428864479065,1.478912591934204,-0.825640857219696,0.23189400136470795,-0.5143368244171143,-0.7161835432052612,0.19405511021614075,-0.38011807203292847,0.8699813146509219,-0.12376392787444004,-0.4769843693475879,0.017347945327736036
1714155309733636000,0.694635986328125,-0.3750200867652893,2.0820748805999756,1.7832993268966675,-0.8119325637817383,0.24693143367767334,-0.5289521813392639,-0.811801016330719,0.14991916716098785,-0.3583310842514038,0.8740550979067065,-0.1292431486038866,-0.4677821139639801,0.022446534148658825
1714155309743625200,0.704625244140625,-0.35764163732528687,2.4013147354125977,2.0746171474456787,-0.7948674559593201,0.2645408809185028,-0.5460805892944336,-0.8730251789093018,0.12272724509239197,-0.31999295949935913,0.8787646440318982,-0.1356998571295916,-0.4566675455726854,0.02851571977222217
1714155309753615000,0.714614990234375,-0.24929939210414886,2.637270450592041,2.3737165927886963,-0.7747663855552673,0.2838814854621887,-0.5649322271347046,-0.8765550851821899,0.16011878848075867,-0.30658864974975586,0.8838465514057572,-0.14260891881726967,-0.44406821801210805,0.03579706579458003
1714155309763604200,0.724604248046875,-0.07037651538848877,2.804816484451294,2.713024854660034,-0.7515674829483032,0.30424726009368896,-0.5853032469749451,-0.8430675268173218,0.24026259779930115,-0.3459557890892029,0.8891853143505815,-0.14944244065840642,-0.4301340814874397,0.04473397275612134
1714155309773594000,0.734593994140625,0.11126316338777542,2.811225414276123,2.7571282386779785,-0.7261817455291748,0.3245420753955841,-0.6060798168182373,-0.8164666891098022,0.3921327590942383,-0.4311973452568054,0.8944435453157726,-0.15593113755888122,-0.41550640948995937,0.05487144720290127
1714155309783583200,0.744583251953125,0.46943435072898865,2.98126482963562,2.764105796813965,-0.6992225050926208,0.34234899282455444,-0.627602756023407,-0.8294335603713989,0.5673037171363831,-0.5272128582000732,0.8997269848731686,-0.16110024422915004,-0.4003065624250412,0.06552042663507301
1714155309793573000,0.754572998046875,0.6795857548713684,3.356835126876831,2.90553879737854,-0.669160008430481,0.3579723834991455,-0.6512147784233093,-0.8837422728538513,0.6173388957977295,-0.6006925106048584,0.9053758270767673,-0.1651458363994409,-0.38356154290927225,0.0768250914741822
1714155309803562200,0.764562255859375,0.8003355860710144,3.7582430839538574,3.0398404598236084,-0.6346747279167175,0.3723602890968323,-0.677152693271637,-0.931868851184845,0.5708922743797302,-0.6228044629096985,0.9114253583666474,-0.16876117944908045,-0.3646139146208998,0.08877041202185132
1714155309813552000,0.77455224609375,0.7743028402328491,4.022853374481201,3.105412006378174,-0.5961351990699768,0.3858177065849304,-0.7041076421737671,-0.9289960861206055,0.45423969626426697,-0.5674529671669006,0.9175393086635554,-0.17244710654292136,-0.3438141558221323,0.1008738331086459
1714155309823541200,0.784541259765625,0.6201361417770386,4.165453910827637,3.2182416915893555,-0.5542996525764465,0.39889708161354065,-0.7305018901824951,-0.838782012462616,0.34008607268333435,-0.4656803011894226,0.9232976199751277,-0.17662882469186553,-0.32179390406801345,0.1130151063007534
1714155309833531100,0.79453125,0.36993542313575745,4.102478504180908,3.2718491554260254,-0.5103978514671326,0.412580281496048,-0.7545008063316345,-0.6760645508766174,0.2587454319000244,-0.3739323019981384,0.9282239879917222,-0.18188367754440518,-0.2994460148840749,0.12510215350028125
1714155309843521500,0.804521484375,0.13579322397708893,4.038089752197266,3.324502944946289,-0.465400367975235,0.42671555280685425,-0.7754458785057068,-0.5175403356552124,0.18819838762283325,-0.28012651205062866,0.9321679011465338,-0.18811168527638145,-0.2772923776764067,0.1370614966093932
1714155309853511700,0.81451171875,-0.09942883253097534,4.042694091796875,3.3149876594543457,-0.41944631934165955,0.4412703216075897,-0.7933129072189331,-0.41379043459892273,0.11367660760879517,-0.18999391794204712,0.9351723660126985,-0.19533439180036388,-0.2553194737544142,0.14869148831019663
1714155309863500500,0.82450048828125,-0.17374832928180695,4.0817365646362305,3.387514591217041,-0.37194210290908813,0.4556739330291748,-0.808715283870697,-0.34876111149787903,0.05541926622390747,-0.08123832941055298,0.9374037155136614,-0.20323959285871107,-0.23310091747495093,0.1600998126933525
1714155309873490700,0.83449072265625,-0.14489340782165527,4.053439617156982,3.520836591720581,-0.32285162806510925,0.46895089745521545,-0.8221021294593811,-0.2773376703262329,-0.039202332496643066,0.06653273105621338,0.9388822551425182,-0.21117910089036676,-0.2105999010812989,0.17190480983424405
1714155309883479600,0.8444794921875,-0.06393997371196747,4.013396739959717,3.6052896976470947,-0.2725121080875397,0.4804582893848419,-0.8336048126220703,-0.1800941526889801,-0.11871814727783203,0.1818408966064453,0.93961464725497,-0.21883185790379883,-0.18791013662447692,0.18419191271142227
1714155309893469700,0.8544697265625,0.06929754465818405,3.949188470840454,3.602299213409424,-0.2216363251209259,0.4893368184566498,-0.8434612154960632,-0.10113288462162018,-0.14407619833946228,0.2586987018585205,0.9397015385863088,-0.225789597408322,-0.1651921851119822,0.19670164606426466
1714155309903458600,0.86445849609375,0.139560267329216,3.767148494720459,3.614905834197998,-0.17116624116897583,0.49545514583587646,-0.8516021966934204,-0.06383442878723145,-0.18660196661949158,0.2736451029777527,0.9391460587829612,-0.23195045892584432,-0.1428211693465845,0.20929821822861022
1714155309913448400,0.874448486328125,0.20635490119457245,3.5722360610961914,3.663421869277954,-0.12178359180688858,0.49935466051101685,-0.8577958345413208,-0.058193884789943695,-0.26383522152900696,0.2663652300834656,0.9378421163919357,-0.23751896616878412,-0.12118920993928378,0.2221487772662606
1714155309923437600,0.8844375,0.30503618717193604,3.349601984024048,3.6699559688568115,-0.07362707704305649,0.5006953477859497,-0.8624866604804993,-0.059109196066856384,-0.33583927154541016,0.33326613903045654,0.9358743979219803,-0.2422894870228482,-0.10026202114439604,0.23533468825586218
1714155309933427500,0.894427490234375,0.38839155435562134,3.1746881008148193,3.5533499717712402,-0.027478069067001343,0.49959006905555725,-0.8658260107040405,-0.08009645342826843,-0.37420853972435,0.4264797568321228,0.9333875989078768,-0.24626398596861496,-0.0802560738193717,0.24839600003008572
1714155309943416600,0.90441650390625,0.5957764387130737,3.0495166778564453,3.4877893924713135,0.01699751801788807,0.4954792857170105,-0.8684534430503845,-0.110396608710289,-0.3428608179092407,0.5841975212097168,0.9306245907408826,-0.24915951814019377,-0.06076853775260446,0.26108356328838483
1714155309953406500,0.914406494140625,0.7889179587364197,2.9937708377838135,3.426133632659912,0.060254938900470734,0.48811328411102295,-0.8706978559494019,-0.13795273005962372,-0.35855087637901306,0.7222298979759216,0.9276438237698145,-0.2508569615164004,-0.04149520584439849,0.27354329563921753
1714155309963395600,0.9243955078125,0.7730780243873596,2.860633373260498,3.2440507411956787,0.10194580256938934,0.4784791171550751,-0.8721609711647034,-0.15202519297599792,-0.4320923686027527,0.8061362504959106,0.9244373587775094,-0.25180897963872806,-0.022621701206625724,0.2854753154448636
1714155309973385500,0.934385498046875,0.6818123459815979,2.630998134613037,3.016122341156006,0.14066019654273987,0.4683285653591156,-0.8722860813140869,-0.15923020243644714,-0.5323544144630432,0.8405935764312744,0.9210060674605867,-0.25265056915062467,-0.004963784085500703,0.2964639154261763
1714155309983374600,0.94437451171875,0.4274580776691437,2.301128387451172,2.8106157779693604,0.17567092180252075,0.45885613560676575,-0.8709712028503418,-0.12498125433921814,-0.7214140295982361,0.8729853630065918,0.9172810530988589,-0.25376281224260666,0.010901418545971625,0.30672657773751205
1714155309993364500,0.954364501953125,0.3438827693462372,1.9317024946212769,2.6276159286499023,0.20644553005695343,0.4504567086696625,-0.8686017990112305,-0.03702723979949951,-0.9139728546142578,0.9125776290893555,0.9133378216745986,-0.25513216425957813,0.024631062060784498,0.31640968256502405
1714155310003353600,0.964353515625,0.4849717319011688,1.5914362668991089,2.3263447284698486,0.23276329040527344,0.44150131940841675,-0.8665435910224915,0.04577060043811798,-0.967136025428772,0.9392365217208862,0.909598561205194,-0.25573271044609,0.03645509591987281,0.32542626767439853
1714155310013343500,0.974343505859375,0.8997144103050232,1.325730562210083,1.9903318881988525,0.2547627091407776,0.4303802251815796,-0.8659496903419495,0.10229289531707764,-0.8369963765144348,0.910459578037262,0.9066092918819832,-0.25460403546013305,0.04692497921319751,0.33321835751045825
1714155310023332600,0.98433251953125,1.3897607326507568,1.06296968460083,1.63209068775177,0.2727639079093933,0.41564854979515076,-0.8676612973213196,0.13548490405082703,-0.6317587494850159,0.8700264692306519,0.9047092030684523,-0.25094123039363203,0.05654964298614994,0.33960531410772443
1714155310033322500,0.994322509765625,1.704048991203308,0.8242042660713196,1.2748432159423828,0.2868213653564453,0.3981260359287262,-0.8713375926017761,0.1462077498435974,-0.4826901853084564,0.7935788631439209,0.9038639598239471,-0.24510244402841486,0.06523798408528501,0.3445270711816797
1714155310043311600,1.0043115234375,1.8382400274276733,0.6934502720832825,1.1246144771575928,0.2979671061038971,0.3790547251701355,-0.8760896921157837,0.13292580842971802,-0.4180103540420532,0.7261263132095337,0.9037068381620943,-0.23791821566857846,0.07314419658295368,0.34836612366986236
1714155310053301500,1.014301513671875,1.506387710571289,0.47928792238235474,0.9089420437812805,0.3069963753223419,0.3611299693584442,-0.8805330395698547,0.1120709776878357,-0.41226211190223694,0.6945131421089172,0.9036584373602455,-0.23094403053382095,0.079989667710162,0.3516646357327365
1714155310063290600,1.02429052734375,1.2927474975585938,0.36401697993278503,0.8183541297912598,0.31357499957084656,0.3462545573711395,-0.8841823935508728,0.10367658734321594,-0.32307639718055725,0.6715664267539978,0.9035892425824417,-0.22503711887445885,0.08524723980272311,0.35442599402816066
1714155310073280500,1.034280517578125,1.0457522869110107,0.3574538826942444,0.9020548462867737,0.31968268752098083,0.33310866355895996,-0.887040913105011,0.13002431392669678,-0.19339913129806519,0.6481646299362183,0.9032113526099681,-0.2199845633658467,0.08992401198157798,0.35739305402261073
1714155310083269600,1.04426953125,0.7120568752288818,0.2971372902393341,0.9666197299957275,0.32561951875686646,0.3223590850830078,-0.8888512849807739,0.17938533425331116,-0.07559385895729065,0.5804101228713989,0.9023461611485332,-0.21620135287973763,0.09397524815233552,0.3608282520456207
1714155310093259500,1.054259521484375,0.4409421980381012,0.3006494641304016,1.077638030052185,0.3314974009990692,0.3138928711414337,-0.8897082209587097,0.2319638431072235,0.06168702244758606,0.5169970989227295,0.9009642523925414,-0.21365943128761872,0.0974450341824307,0.3648526565007884
1714155310103248600,1.06424853515625,0.25133392214775085,0.32511138916015625,1.2405840158462524,0.33782848715782166,0.3071189224720001,-0.8896909356117249,0.30787765979766846,0.14354950189590454,0.45539528131484985,0.8990479219947993,-0.21218023468333289,0.10066823069718113,0.3695380777409585
1714155310113238500,1.074238525390625,0.13113300502300262,0.3487866222858429,1.4534878730773926,0.34488868713378906,0.3006996512413025,-0.8891746401786804,0.41483113169670105,0.20218431949615479,0.4458610415458679,0.8965906840550317,-0.211191682190331,0.1039747799207174,0.37511669821708954
1714155310123227600,1.0842275390625,-0.057130374014377594,0.40793225169181824,1.6575909852981567,0.3529461920261383,0.29491832852363586,-0.8879482746124268,0.5679216980934143,0.1888463795185089,0.46898770332336426,0.8934700791072412,-0.21092518945722244,0.10740775535291158,0.3816873783525716
1714155310133217500,1.094217529296875,-0.21675486862659454,0.43050146102905273,1.8714897632598877,0.3618808090686798,0.28981173038482666,-0.8860313296318054,0.6957973837852478,0.1619400680065155,0.4853050112724304,0.8897000358166548,-0.2113840288239304,0.11091049066235883,0.3891653444624647
1714155310143206700,1.10420654296875,-0.4447898864746094,0.4910966455936432,2.0898849964141846,0.37154799699783325,0.28553828597068787,-0.8834137916564941,0.807468056678772,0.07691901922225952,0.5001588463783264,0.8852171071067247,-0.2126438612121747,0.11434895362307823,0.3976148101670301
1714155310153196500,1.114196533203125,-0.5470288991928101,0.623244047164917,2.3623368740081787,0.38272133469581604,0.2816227078437805,-0.8798937797546387,0.9212642312049866,-0.010916441679000854,0.5117297172546387,0.8798931096983603,-0.21469611406579198,0.11814694315607245,0.40710560927441664
1714155310163185700,1.124185546875,-0.6039747595787048,0.7577142119407654,2.663360595703125,0.39577117562294006,0.2769336998462677,-0.8755986094474792,1.0570027828216553,-0.026720017194747925,0.5183598399162292,0.8736850165282035,-0.21713957762691416,0.12268295716559074,0.41770059537366866
1714155310173175600,1.134175537109375,-0.6512625217437744,0.8515645265579224,3.0857551097869873,0.4106665849685669,0.27088600397109985,-0.8706169128417969,1.2724846601486206,-0.03629729151725769,0.5222740173339844,0.8664330080102536,-0.2197932549921532,0.12799404077488793,0.4296538788297393
1714155310183164700,1.14416455078125,-0.6683099865913391,0.8882439732551575,3.6802902221679688,0.4272361099720001,0.2625330686569214,-0.8651853799819946,1.5495553016662598,-0.03789311647415161,0.5597349405288696,0.8577776407353184,-0.22235377755395205,0.13403774110488367,0.4436329973309256
1714155310193154600,1.154154541015625,-0.6534725427627563,0.9193094968795776,4.479379653930664,0.44545796513557434,0.25044122338294983,-0.8595617413520813,1.8366007804870605,-0.002302706241607666,0.5901373624801636,0.8472346984613681,-0.2243938850101718,0.1409485875903614,0.4604066983859581
1714155310203143700,1.164143798828125,-0.704079270362854,1.1317086219787598,5.1846489906311035,0.4664415121078491,0.23410914838314056,-0.8530095219612122,2.058567523956299,0.0426395982503891,0.6014226078987122,0.8342214524650592,-0.2262686210450917,0.14932429451960083,0.48018687350500244
1714155310213133600,1.174133544921875,-0.5796336531639099,1.0189237594604492,5.6307477951049805,0.487698495388031,0.21379847824573517,-0.8464280366897583,2.1640195846557617,0.0356522798538208,0.6364976167678833,0.8194134256291747,-0.22741369995850852,0.15833191326415838,0.5017725199803554
1714155310223122700,1.184122802734375,-0.4773392081260681,0.8931615352630615,6.045544624328613,0.5075322985649109,0.18914280831813812,-0.8406164050102234,2.2716729640960693,-0.09267666935920715,0.6927434802055359,0.8030253238485086,-0.22723934177248542,0.16749352530087483,0.524841411819031
1714155310233112600,1.194112548828125,-0.4589737355709076,0.825283408164978,6.197598457336426,0.5253616571426392,0.1613055169582367,-0.8354493975639343,2.4273667335510254,-0.29558277130126953,0.7518160343170166,0.7853301868139428,-0.22604856325514985,0.17657106534826436,0.5486176413448159
1714155310243101700,1.204101806640625,-0.3885831832885742,0.7955771684646606,6.010690689086914,0.5411048531532288,0.13232915103435516,-0.8304784893989563,2.461458683013916,-0.5125170946121216,0.8668860197067261,0.7669568528551032,-0.22448963421743434,0.18537839160027064,0.5718535291409583
1714155310253091600,1.214091552734375,-0.008962048217654228,0.9815313220024109,5.685871124267578,0.5549073219299316,0.10201794654130936,-0.8256332278251648,2.537911891937256,-0.7038092613220215,1.093074083328247,0.7488226060081841,-0.22219994176053662,0.19444939783788573,0.5933644756614709
1714155310263080700,1.224080810546875,0.3526422083377838,-0.6593884229660034,4.8311052322387695,0.5629230737686157,0.07084774971008301,-0.8234671950340271,2.752048969268799,-0.8383037447929382,1.4219779968261719,0.7328160956760239,-0.21744593653113378,0.20244421657803646,0.6121390328615557
1714155310273070600,1.234070556640625,0.5692346096038818,1.7919341325759888,3.362778663635254,0.5742467641830444,0.04344584792852402,-0.8175286650657654,2.870699405670166,-0.7407266497612,1.8219232559204102,0.7192902733383085,-0.21485425464235156,0.21230477404189677,0.6256084103442681
1714155310283059700,1.244059814453125,1.370435357093811,0.6302641034126282,2.321160078048706,0.585484504699707,0.01896239072084427,-0.8104618191719055,2.100123405456543,-0.4869646430015564,2.0912234783172607,0.7101178422047533,-0.2122133502253223,0.2230125217019861,0.6332168710133341
1714155310293049600,1.254049560546875,1.9800559282302856,-3.8615238666534424,1.582168698310852,0.5730600357055664,-0.005745298229157925,-0.819493293762207,2.8354482650756836,-0.4607005715370178,2.177495002746582,0.7073869205479668,-0.19927663175181745,0.22481589809717178,0.6398049837929598
1714155310303038700,1.264038818359375,2.7701804637908936,-7.720341682434082,0.7314285039901733,0.5228728652000427,-0.03303372487425804,-0.8517703413963318,4.7122344970703125,-0.4609237313270569,2.878061294555664,0.7119520116870308,-0.17007622256479965,0.2125767999895935,0.6473094488774234
1714155310313028600,1.274028564453125,3.3016600608825684,-9.65173625946045,-1.8740488290786743,0.4472767114639282,-0.057640451937913895,-0.8925363421440125,5.079487323760986,-0.5417399406433105,3.1369059085845947,0.724621928125162,-0.13131144676949275,0.19102127527728902,0.6489925242090788
1714155310323017500,1.284017578125,3.619495391845703,-12.82564640045166,-6.1462931632995605,0.34814077615737915,-0.0728999525308609,-0.9346034526824951,2.931903839111328,-1.0074527263641357,3.02917742729187,0.7487257206788172,-0.0865505619825223,0.1587679914779773,0.637739430207529
1714155310333007600,1.294007568359375,6.405849456787109,-16.694570541381836,-10.781993865966797,0.21318641304969788,-0.09605100005865097,-0.9722786545753479,1.0802401304244995,-1.5925475358963013,2.892505645751953,0.7866426351770854,-0.027202113219972943,0.1145457289768118,0.6060797244508832
1714155310342996500,1.30399658203125,7.491087913513184,-12.47529125213623,-13.514375686645508,0.09029971063137054,-0.1409757137298584,-0.9858863353729248,0.07541071623563766,-2.076782464981079,2.558090925216675,0.8303277147230647,0.03389381578274604,0.07686387938754377,0.5509074269408845
1714155310352986600,1.313986572265625,7.77579402923584,-12.771531105041504,-8.323019981384277,-0.021087419241666794,-0.21069549024105072,-0.9773242473602295,-1.8136141300201416,-2.3824594020843506,0.2184131145477295,0.8613946737941667,0.09708322482438424,0.04373453859503118,0.49665025352537684
1714155310362975500,1.3239755859375,1.6979560852050781,-15.082850456237793,-7.806877136230469,-0.14190149307250977,-0.2600609362125397,-0.9551085233688354,-6.64594030380249,-3.443430185317993,-1.4098206758499146,0.8757779480882604,0.14979774547290098,-0.002525928737101557,0.4588760314253585
1714155310372965600,1.333965576171875,-1.5837924480438232,-6.646180152893066,-12.444387435913086,-0.21306094527244568,-0.2864760458469391,-0.93409663438797,-12.1320161819458,-3.7623977661132812,-0.8426520228385925,0.8990176322616498,0.1770621820536468,-0.04000835384478118,0.39851681366486524
1714155310382954500,1.34395458984375,-8.727917671203613,1.3801602125167847,-8.49014949798584,-0.20885534584522247,-0.2623491883277893,-0.9420999884605408,-17.769859313964844,-0.7954663038253784,-1.9807209968566895,0.921766891026004,0.16198648257632517,-0.05206140182612794,0.3484191519157954
1714155310392944600,1.353944580078125,-14.407520294189453,5.26763391494751,-2.9566187858581543,-0.16363732516765594,-0.1564134955406189,-0.9740419387817383,-13.957456588745117,0.9822802543640137,-1.1813840866088867,0.9410431656295986,0.10096775203638592,-0.052768874378613134,0.3185261700941877
1714155310402933500,1.36393359375,-8.354057312011719,11.913947105407715,3.310645341873169,-0.0670761838555336,-0.05784976854920387,-0.9960693717002869,-6.454881191253662,1.411167025566101,3.614035129547119,0.9457682484564389,0.038224014881722286,-0.022455278537171993,0.3218029802823887
1714155310412923600,1.373923583984375,-1.3638250827789307,4.769741058349609,7.1809210777282715,0.03918727487325668,0.003575042588636279,-0.9992254972457886,-0.8222683668136597,4.533397197723389,1.5388983488082886,0.9381747025223938,-0.008451890892854936,0.017771361510062658,0.34560261174366125
1714155310422912500,1.38391259765625,11.730114936828613,-4.256401062011719,7.42042350769043,0.03829311951994896,-0.055660925805568695,-0.9977151155471802,1.5564486980438232,8.070691108703613,-1.6456717252731323,0.9240114061020226,0.018444414283529914,0.028323733190063097,0.3808683420160379
1714155310432902700,1.393902587890625,14.842666625976562,-11.319037437438965,0.38379719853401184,-0.04972269386053085,-0.19252534210681915,-0.980031430721283,1.716775894165039,5.639745235443115,-0.7530160546302795,0.9119725650264663,0.09866626840666089,0.015787359116062764,0.39789673341298626
1714155310442891500,1.4038916015625,8.229621887207031,4.559163570404053,-3.6112937927246094,-0.04844958707690239,-0.28650447726249695,-0.9568530917167664,-0.4295777976512909,0.40329527854919434,2.130620241165161,0.9126870683823445,0.14306911849164491,0.03323681761030983,0.3813513906890947
1714155310452881700,1.413881591796875,-0.05471526086330414,6.317119598388672,0.9483698010444641,0.019490735605359077,-0.3254217207431793,-0.9453681111335754,-3.2856650352478027,-3.6081109046936035,2.9822638034820557,0.9090625617822687,0.14823615848599586,0.07308895614704769,0.3824779776522865
1714155310462870500,1.42387060546875,-3.8696956634521484,1.9903149604797363,-1.6460825204849243,0.058506764471530914,-0.3042718172073364,-0.950786828994751,-4.3423967361450195,-8.291675567626953,3.282482385635376,0.9091843519957576,0.1302408481007221,0.08742939550188722,0.38571659840868955
1714155310472860700,1.433860595703125,-4.835073947906494,-1.3381855487823486,-3.6215524673461914,0.06757798790931702,-0.2592802941799164,-0.9634349942207336,-1.4964416027069092,-6.034726142883301,2.9166362285614014,0.9171510455942202,0.10821037119905141,0.08107419831040219,0.3749020781652679
1714155310482849500,1.443849609375,-3.8375930786132812,-1.7550445795059204,-2.8605968952178955,0.0636443942785263,-0.21293134987354279,-0.9749920964241028,0.5322875380516052,-1.3372089862823486,1.10165536403656,0.9260917686974408,0.08823320669958382,0.0686938245098437,0.3603471832398258
1714155310492839700,1.453839599609375,0.08073524385690689,-2.368016242980957,0.3262209892272949,0.041910022497177124,-0.19376754760742188,-0.980151891708374,1.134161114692688,0.6157341599464417,0.3803746700286865,0.929873293447514,0.08349736209131191,0.054334664823276646,0.3541350466139997
1714155310502829600,1.46382958984375,2.4900059700012207,-1.2808666229248047,1.7484360933303833,0.02252676524221897,-0.20771673321723938,-0.9779295921325684,1.031687617301941,1.738081693649292,0.06824636459350586,0.9275031426731585,0.09331798495396695,0.04823849966386523,0.3587516093290003
1714155310512818700,1.473818603515625,3.1096363067626953,-0.18811143934726715,0.8376123309135437,0.012120685540139675,-0.23569561541080475,-0.97175133228302,0.41994714736938477,2.434777021408081,-0.5135849714279175,0.9237017751236823,0.10817690773069552,0.04921470962037017,0.36421240560862855
1714155310522808600,1.48380859375,1.8572022914886475,2.4672861099243164,-0.7746070623397827,0.023543238639831543,-0.2610027492046356,-0.9650509357452393,-0.35191240906715393,1.607896089553833,-0.016730070114135742,0.9219613299190651,0.11809575073101743,0.05939641579536258,0.36402307932155237
1714155310532797700,1.493797607421875,1.0837531089782715,2.5187647342681885,-0.6306713223457336,0.05122692883014679,-0.2739371061325073,-0.960382342338562,-0.8609346151351929,0.05839148163795471,0.01589381694793701,0.9216978699490175,0.11934916126553582,0.07459625430105411,0.36147505055651297
1714155310542787600,1.50378759765625,-0.09924640506505966,0.6902856230735779,0.05779841169714928,0.06782709807157516,-0.27930477261543274,-0.9578039050102234,-0.886873185634613,-1.0500257015228271,0.2137395739555359,0.9212034193463052,0.11891599280645998,0.08340882430860383,0.3609518137461917
1714155310552776400,1.5137763671875,-0.9777448177337646,-0.44917604327201843,0.19469960033893585,0.0673496201634407,-0.2734167277812958,-0.9595349431037903,-0.3438084125518799,-1.1881463527679443,0.4769452214241028,0.9211994823409648,0.11608883223908412,0.0821943384388246,0.36215861038107383
1714155310562766600,1.5237666015625,-0.964932382106781,-0.3180193603038788,-0.30555441975593567,0.06357476860284805,-0.26384493708610535,-0.9624677300453186,-0.10842040926218033,-0.8125100135803223,0.5917707085609436,0.922039460563054,0.11223546251866165,0.07854517442340969,0.36204568203046417
1714155310572755500,1.53375537109375,-0.694756805896759,-0.19046060740947723,-0.19062717258930206,0.06196828559041023,-0.25553569197654724,-0.9648116230964661,-0.18535089492797852,-0.41063249111175537,0.45501548051834106,0.9231186550735949,0.10867433115177935,0.07605314865198574,0.3609126270135922
1714155310582745600,1.54374560546875,-0.2303648442029953,-0.12343443930149078,0.08763960003852844,0.060575395822525024,-0.2508614659309387,-0.9661258459091187,-0.2196025401353836,0.1521066129207611,0.30596959590911865,0.9234834863203591,0.10671006110307407,0.07449860228932023,0.360889415250913
1714155310592734500,1.553734375,0.004329788498580456,0.10435265302658081,0.40391120314598083,0.05988858640193939,-0.2502305209636688,-0.9663322567939758,-0.11935213953256607,0.5340440273284912,0.10933762788772583,0.9230895260082426,0.1064434476504788,0.07418666172913525,0.3620386002748094
1714155310602724600,1.563724609375,-0.06582586467266083,0.18092012405395508,0.5894350409507751,0.06011025607585907,-0.2502424418926239,-0.9663153886795044,-0.04489728435873985,0.4912703335285187,0.00797194242477417,0.9221131123823104,0.10620942834626514,0.07457780787703264,0.3645066886142866
1714155310612713500,1.57371337890625,-0.1385636031627655,0.27819982171058655,0.6355079412460327,0.06065836176276207,-0.24961580336093903,-0.9664432406425476,-0.006306588649749756,0.3197910189628601,-0.025530636310577393,0.9209644728464981,0.10556936638018932,0.07505660420483255,0.36748620213467276
1714155310622703600,1.58370361328125,-0.13357603549957275,0.47431525588035583,0.6272302865982056,0.06275235861539841,-0.24858315289020538,-0.9665756821632385,-0.04529634863138199,0.14155805110931396,-0.06320947408676147,0.9197186420314765,0.10442789093894639,0.07620348812814767,0.37068248372735907
1714155310632692500,1.5936923828125,-0.10267309844493866,0.4880997836589813,0.5734254121780396,0.06597781926393509,-0.24784815311431885,-0.9665496349334717,-0.10124091804027557,-0.01470978558063507,-0.03705143928527832,0.9184659994183413,0.1032164952910288,0.0779200339250935,0.37375799957513395
1714155310642682600,1.6036826171875,-0.03143459931015968,0.4338091015815735,0.46452394127845764,0.06911882013082504,-0.24744999408721924,-0.9664321541786194,-0.10587728023529053,-0.14871391654014587,-0.027937352657318115,0.917354435563499,0.10220692611579074,0.07960948107125565,0.3764001166427914
1714155310652671500,1.61367138671875,0.05534881725907326,0.39459511637687683,0.4235934615135193,0.0720042735338211,-0.24791865050792694,-0.9661012887954712,-0.06243705004453659,-0.18887940049171448,0.0005861520767211914,0.9163566326092963,0.10168385094098047,0.08130031897234201,0.3786043646069257
1714155310662661600,1.62366162109375,0.0001390916295349598,0.4254837930202484,0.41186222434043884,0.07482989132404327,-0.2485455572605133,-0.9657254219055176,-0.03762900084257126,-0.1655016541481018,-0.007968425750732422,0.9153798480176065,0.10124754387468185,0.08298326644160609,0.3807130728634649
1714155310672650500,1.633650390625,-0.1258724331855774,0.4585091173648834,0.44826963543891907,0.07807867974042892,-0.24824361503124237,-0.9655458927154541,-0.04659983515739441,-0.12123265862464905,-0.0062711238861083984,0.9144200680935342,0.10027898016264619,0.08468287070599984,0.3828955497456423
1714155310682640600,1.643640625,-0.22514548897743225,0.45083150267601013,0.5670420527458191,0.08118826150894165,-0.2468717396259308,-0.9656411409378052,-0.05987177789211273,-0.10186785459518433,-0.011043429374694824,0.9133422567800726,0.09878638615791191,0.0861433598485815,0.3855211449141395
1714155310692629500,1.65362939453125,-0.15287314355373383,0.5229464173316956,0.6593838930130005,0.08432365953922272,-0.2453952431678772,-0.9657487869262695,-0.0522649884223938,-0.06560935080051422,-0.02555370330810547,0.9120404967088542,0.09718289835066732,0.08764186605809762,0.38865997738092484
1714155310702619600,1.66361962890625,0.0394933708012104,0.6117569804191589,0.6949014067649841,0.08813907206058502,-0.24539430439472198,-0.9654082655906677,-0.060444414615631104,0.011492371559143066,-0.029892027378082275,0.9104923340754592,0.09609920491925722,0.089781982710886,0.39205599589567647
1714155310712608500,1.6736083984375,0.18663142621517181,0.6470007300376892,0.6897019743919373,0.0924893319606781,-0.24714700877666473,-0.9645538330078125,-0.09375585615634918,0.055954426527023315,-0.054473876953125,0.9087809386856966,0.09570927572802526,0.09253552483076923,0.395466930541998
1714155310722598700,1.6835986328125,0.26880696415901184,0.6663312911987305,0.6286689639091492,0.09720490127801895,-0.24996277689933777,-0.9633638262748718,-0.12192417681217194,0.03952886164188385,-0.03811633586883545,0.9070523186996595,0.09574212349817879,0.09566370942297306,0.39867025997633015
1714155310732587500,1.69358740234375,0.2703375518321991,0.6102795004844666,0.5935797691345215,0.10185997933149338,-0.25322628021240234,-0.9620296359062195,-0.13114163279533386,-0.02054685354232788,0.04078024625778198,0.9053890935024295,0.0960031430297596,0.0988361569222089,0.40160341913365866
1714155310742577700,1.70357763671875,0.16829562187194824,0.4847109019756317,0.5770545601844788,0.10563868284225464,-0.2559502124786377,-0.960900604724884,-0.12318632006645203,-0.09555122256278992,0.06978732347488403,0.9038311430217005,0.09618815826225074,0.10147678042957166,0.40440041829115386
1714155310752566500,1.71356640625,0.06077016144990921,0.42627954483032227,0.5336822867393494,0.10851704329252243,-0.2575716972351074,-0.9601463079452515,-0.10473290085792542,-0.11315581202507019,0.08626013994216919,0.9024255633540306,0.09604685226392802,0.10344980612400202,0.40706414410438285
1714155310762556700,1.723556640625,0.08938395977020264,0.44304123520851135,0.5746774077415466,0.11125992238521576,-0.25879403948783875,-0.9595034718513489,-0.10807087272405624,-0.06569930911064148,0.07350188493728638,0.901054646771027,0.09574088865946784,0.10527085923990909,0.40969783647812114
1714155310772545500,1.733545654296875,0.15263058245182037,0.46524691581726074,0.6632536053657532,0.1139845997095108,-0.26063603162765503,-0.9586847424507141,-0.11445765197277069,-0.024474382400512695,0.012029409408569336,0.8994755789005635,0.09567600270771005,0.1072555170370384,0.4126574643939026
1714155310782535700,1.74353564453125,0.18679067492485046,0.4830394983291626,0.6676502227783203,0.11676674336194992,-0.26305708289146423,-0.9576880931854248,-0.0893772542476654,-0.0004316270351409912,-0.035002946853637695,0.8977517297364974,0.09583185950778834,0.10941758066456722,0.4157954379093293
1714155310792524500,1.753524658203125,0.2389497011899948,0.5251949429512024,0.6408891081809998,0.1198265478014946,-0.2658098340034485,-0.9565494060516357,-0.05767753720283508,0.04117000102996826,-0.030526459217071533,0.8960104161242514,0.09607645412991117,0.11177933733120687,0.41885575132782205
1714155310802514400,1.763514404296875,0.3477363586425781,0.5452530980110168,0.6014535427093506,0.12328396737575531,-0.26930972933769226,-0.9551300406455994,-0.0509878545999527,0.07736948132514954,-0.01123964786529541,0.8942680230302062,0.09658869116284297,0.11447977493966227,0.4217224336592041
1714155310812503600,1.773503662109375,0.5037524104118347,0.5115910172462463,0.6014151573181152,0.12671267986297607,-0.27404049038887024,-0.9533339738845825,-0.05578985810279846,0.07102233171463013,-0.01656043529510498,0.8924960627735993,0.09768058146701215,0.11743723220384866,0.4244029189301977
1714155310822493400,1.783493408203125,0.6806191205978394,0.5116551518440247,0.5971860885620117,0.12986159324645996,-0.28043514490127563,-0.9510478973388672,-0.05085161328315735,0.05663451552391052,0.0030498504638671875,0.8906245708105123,0.09959474177275367,0.12065213350663209,0.42697998153394207
1714155310832482600,1.793482666015625,0.8201537728309631,0.5879749655723572,0.6000639200210571,0.13332022726535797,-0.2883509397506714,-0.9481980204582214,-0.05206722021102905,0.09143629670143127,0.0049301981925964355,0.8886356135784261,0.10213782383233849,0.12437386111763928,0.42944840205305645
1714155310842472400,1.803472412109375,0.8211673498153687,0.616460919380188,0.656177818775177,0.13726340234279633,-0.2970314025878906,-0.9449503421783447,-0.06208337843418121,0.1229591965675354,-0.021220922470092773,0.8864779392483102,0.10489350570608615,0.12853866150355706,0.43200948460017036
1714155310852460300,1.813460205078125,0.6552207469940186,0.5796827077865601,0.6728511452674866,0.14091898500919342,-0.3049904704093933,-0.9418718814849854,-0.04689435660839081,0.0853707492351532,-0.0026471614837646484,0.884237933557503,0.10732489302695411,0.13245912067930496,0.43480952531394135
1714155310862450400,1.823450439453125,0.4909921884536743,0.5046665072441101,0.6339421272277832,0.14399853348731995,-0.311204195022583,-0.9393702149391174,-0.012238934636116028,0.030457794666290283,0.05692392587661743,0.8821441374726586,0.10906170595334297,0.13572193037668628,0.4376149695780557
1714155310872439300,1.833439208984375,0.4196162223815918,0.41869089007377625,0.599819004535675,0.14638878405094147,-0.3163115084171295,-0.9372925758361816,0.021213725209236145,-0.004672348499298096,0.07759714126586914,0.8802327275117814,0.11045172452160092,0.1383984483561882,0.4402688485518558
1714155310882429400,1.843429443359375,0.37415844202041626,0.3682439625263214,0.5690706968307495,0.14815133810043335,-0.3208414912223816,-0.935474157333374,0.03271107375621796,-0.0036976635456085205,0.08299612998962402,0.8784549211013764,0.11172784773709513,0.14064069258469894,0.4427798753350941
1714155310892418300,1.853418212890625,0.41562512516975403,0.39666226506233215,0.5401087403297424,0.14987348020076752,-0.3252567648887634,-0.9336733818054199,0.006880030035972595,0.039993733167648315,0.09224271774291992,0.8767441619633605,0.11297208906927964,0.14283072589393428,0.4451476770857633
1714155310902408400,1.863408447265625,0.5039334297180176,0.41535741090774536,0.5495403409004211,0.15188252925872803,-0.330331027507782,-0.9315648674964905,-0.021740347146987915,0.06487390398979187,0.09640556573867798,0.8749820151554728,0.11445521172417626,0.14531884143077806,0.44742484367087026
1714155310912397300,1.873397216796875,0.539266049861908,0.359609454870224,0.5761470198631287,0.15364542603492737,-0.3360002934932709,-0.9292453527450562,-0.014332696795463562,0.03810298442840576,0.07675200700759888,0.8731367254013538,0.1162504447297085,0.14786199701929206,0.4497275676632091
1714155310922387500,1.883387451171875,0.554348349571228,0.3128238320350647,0.5639273524284363,0.15473458170890808,-0.3418959677219391,-0.9269111752510071,0.008061408996582031,0.018714845180511475,0.05154496431350708,0.8712870512375317,0.118296939036643,0.1501673645094644,0.45201161623827346
1714155310932376300,1.893376220703125,0.5308424830436707,0.348662793636322,0.5186342000961304,0.15584111213684082,-0.34770411252975464,-0.9245622754096985,0.011929228901863098,0.0390188992023468,0.037477314472198486,0.8694992092751845,0.12031476318727294,0.152457297544456,0.45414992224691286
1714155310942366500,1.903366455078125,0.4329225718975067,0.3946063220500946,0.4764966070652008,0.15753258764743805,-0.3529127240180969,-0.9222993850708008,0.008254125714302063,0.05716690421104431,0.043377816677093506,0.8677936064381303,0.12193468840056577,0.15486204818156615,0.4561622213982411
1714155310952355300,1.913355224609375,0.20802459120750427,0.3674817383289337,0.46217939257621765,0.1594265252351761,-0.35659629106521606,-0.9205554127693176,0.018262043595314026,0.03750452399253845,0.03362303972244263,0.8662356796386323,0.12280460096512752,0.15697554256471327,0.4581632127013338
1714155310962345500,1.923345458984375,-0.09260394424200058,0.27741071581840515,0.48782244324684143,0.16068881750106812,-0.35777008533477783,-0.9198802709579468,0.0395369827747345,-0.00975307822227478,0.016331076622009277,0.8648729295391221,0.12263803963289328,0.15817644881459517,0.46036383795907615
1714155310972334300,1.933334228515625,-0.326050341129303,0.18778656423091888,0.4985206425189972,0.16100704669952393,-0.3564862906932831,-0.9203228950500488,0.060687869787216187,-0.05644705891609192,0.021381855010986328,0.8636866684381695,0.12152870501243775,0.15833292120225606,0.4628248998378458
1714155310982324500,1.943324462890625,-0.37643522024154663,0.15389703214168549,0.4728482663631439,0.16081108152866364,-0.35383111238479614,-0.9213812351226807,0.07513555884361267,-0.06648746132850647,0.02857416868209839,0.8626556188823664,0.11991735055128104,0.1578899017766054,0.4653127319982097
1714155310992313300,1.953313232421875,-0.24462582170963287,0.13645359873771667,0.41317856311798096,0.1605391651391983,-0.3515147864818573,-0.9223147630691528,0.07218785583972931,-0.023164749145507812,0.014874577522277832,0.8617077033591315,0.11852401733352017,0.15746324436680814,0.46756520449934974
1714155311002303500,1.963303466796875,-0.019721325486898422,0.1529281735420227,0.3360757827758789,0.1604892611503601,-0.35077422857284546,-0.9226053357124329,0.0648525059223175,0.04422518610954285,-0.0037710070610046387,0.8608127335213234,0.11787273749420395,0.1574907592842392,0.4693657079086311
1714155311012292400,1.973292236328125,0.18253068625926971,0.18545469641685486,0.2787940204143524,0.1609901636838913,-0.35195809602737427,-0.9220670461654663,0.04930645227432251,0.08538708090782166,-0.004004120826721191,0.8599250060650607,0.11803895392182014,0.1582190677642407,0.4707043479669632
1714155311022282200,1.9832822265625,0.22225439548492432,0.1657840460538864,0.2663882374763489,0.1616550236940384,-0.3542483448982239,-0.9210731387138367,0.030651479959487915,0.06779512763023376,-0.01162034273147583,0.8590335797649405,0.11870546498486406,0.15928725119656018,0.4718029136790323
1714155311032271400,1.993271240234375,0.13175645470619202,0.17174899578094482,0.25482213497161865,0.1622363179922104,-0.3562910854816437,-0.9201826453208923,0.017313838005065918,0.04794153571128845,-0.02186453342437744,0.8581763688884534,0.11928066166155338,0.16025233769595956,0.4728898409745447
1714155311042261200,2.00326123046875,-0.04999363794922829,0.16594304144382477,0.2258504033088684,0.16294638812541962,-0.35701343417167664,-0.9197770953178406,0.01925879716873169,0.03165030479431152,-0.0034865140914916992,0.8574524942658484,0.11922609552926113,0.16092418086571705,0.4739872382966468
1714155311052251400,2.01325146484375,-0.31953275203704834,0.08769697695970535,0.23336058855056763,0.16330638527870178,-0.3556286692619324,-0.9202495813369751,0.03481370210647583,-0.02097347378730774,-0.00016057491302490234,0.8569203555874811,0.11828810729355986,0.16088236162990247,0.4751971773801867
1714155311062240300,2.023240234375,-0.5439136624336243,0.034512054175138474,0.20250599086284637,0.16301430761814117,-0.35185372829437256,-0.9217512011528015,0.04853351414203644,-0.06959396600723267,0.010313212871551514,0.856610897176511,0.11641379787024517,0.15991316654925444,0.47654322356773815
1714155311072229400,2.0332294921875,-0.6180545091629028,0.05975589156150818,0.13093708455562592,0.16283546388149261,-0.34657910466194153,-0.9237789511680603,0.053839311003685,-0.060784757137298584,0.0407528281211853,0.8565274540886201,0.1138690880330604,0.15856971352117905,0.4777554733209157
1714155311082219300,2.04321923828125,-0.5532539486885071,0.05025985836982727,0.11984899640083313,0.16295123100280762,-0.341255784034729,-0.9257382750511169,0.04513286054134369,-0.03464445471763611,0.03802770376205444,0.8565300567190395,0.11127102758169953,0.15732009627195526,0.47877492540866684
1714155311092209400,2.05320947265625,-0.46033748984336853,0.06415916234254837,0.11014397442340851,0.1630271077156067,-0.33666691184043884,-0.9274036884307861,0.03741233050823212,-0.0033141374588012695,0.010213136672973633,0.8564939889852208,0.10903147485109528,0.1562379510873626,0.4797083620085672
1714155311102198300,2.0631982421875,-0.34302231669425964,0.09147173911333084,0.08945468068122864,0.1634337455034256,-0.3330025374889374,-0.9286542534828186,0.030261307954788208,0.034525394439697266,-0.000026166439056396484,0.8564209219792227,0.10715350130736943,0.15553454149747292,0.4804898065386145
1714155311112188400,2.0731884765625,-0.32512080669403076,0.08381675183773041,0.07897932827472687,0.1639287769794464,-0.3300336003303528,-0.9296264052391052,0.022060588002204895,0.02772650122642517,-0.006301999092102051,0.8563306249054381,0.10558649516858148,0.15504290101388166,0.48115616373249964
1714155311122177300,2.08317724609375,-0.3640892505645752,0.05601681396365166,0.06580760329961777,0.16433273255825043,-0.3268658518791199,-0.9306736588478088,0.021427735686302185,0.0038678348064422607,0.010782301425933838,0.856287903801814,0.10396353622236615,0.15444980601938774,0.48177596427020686
1714155311132167400,2.09316748046875,-0.4396125078201294,0.017713099718093872,0.030166517943143845,0.16447114944458008,-0.3231273591518402,-0.9319538474082947,0.013965100049972534,-0.009117424488067627,0.03333324193954468,0.8563654336706513,0.10217137417898413,0.15357114561768787,0.4823018839051244
1714155311142156300,2.10315625,-0.46793949604034424,0.03780744969844818,0.051707763224840164,0.1645660698413849,-0.3188171684741974,-0.9334204196929932,-0.009353682398796082,-0.016555696725845337,0.04122370481491089,0.8565013382769698,0.10013932025931437,0.15251858113037808,0.4828206918479023
1714155311152146400,2.113146484375,-0.4665435552597046,0.04425656050443649,0.08885786682367325,0.16472364962100983,-0.31445518136024475,-0.9348711371421814,-0.02953079342842102,-0.01637059450149536,0.041987836360931396,0.8565370036338347,0.09804131394117069,0.15150025642674436,0.4835079009919332
1714155311162135300,2.12313525390625,-0.44326114654541016,0.029539132490754128,0.11462022364139557,0.1646994799375534,-0.31018614768981934,-0.93630051612854,-0.018138840794563293,-0.015924662351608276,0.02365708351135254,0.8565002485073865,0.09601229124439689,0.1504373163034703,0.484311495638311
1714155311172125400,2.13312548828125,-0.39894816279411316,0.04580199345946312,0.1492527574300766,0.16460135579109192,-0.3063138425350189,-0.9375917315483093,-0.0007219761610031128,-0.010824769735336304,0.01306164264678955,0.8563697690505407,0.09416435265359757,0.14945641279500196,0.48520777655765457
1714155311182114300,2.1431142578125,-0.35755279660224915,0.057027749717235565,0.1882888376712799,0.1645628958940506,-0.30291077494621277,-0.9387034177780151,0.014727860689163208,-0.017889946699142456,0.011503100395202637,0.8561076016621905,0.09248800254048903,0.14864138499879662,0.4862421906944977
1714155311192104400,2.1531044921875,-0.3256770670413971,0.057565443217754364,0.21581441164016724,0.16445863246917725,-0.2998940050601959,-0.9396898150444031,0.030335038900375366,-0.03029090166091919,0.027183711528778076,0.8557425185545323,0.09098179607478035,0.14791013240335799,0.48739057662221474
1714155311202093300,2.16309326171875,-0.24646131694316864,0.0786970853805542,0.24093708395957947,0.16437700390815735,-0.2974458932876587,-0.9404819011688232,0.045904338359832764,-0.030511200428009033,0.031073272228240967,0.8552731474427382,0.08970950714876105,0.14734743850974466,0.4886193870820644
1714155311212083500,2.17308349609375,-0.16253472864627838,0.09086267650127411,0.25884974002838135,0.16441869735717773,-0.2958265542984009,-0.9409852027893066,0.061090946197509766,-0.031230300664901733,0.01328134536743164,0.8547057994132565,0.08876997620774844,0.14706219677503599,0.48986794929213756
1714155311222072300,2.183072265625,-0.11065847426652908,0.08722160011529922,0.2520509660243988,0.1644427478313446,-0.2948541045188904,-0.9412861466407776,0.0753643661737442,-0.041998863220214844,0.003267347812652588,0.8540830162596851,0.08812253059455098,0.14693992053373048,0.49110617125162676
1714155311232062500,2.1930625,-0.06996308267116547,0.10632605105638504,0.23080746829509735,0.1645973175764084,-0.294297456741333,-0.941433310508728,0.08117596805095673,-0.048308104276657104,0.00030171871185302734,0.8534658919830861,0.08764112600387282,0.1469774368063774,0.49225254712908845
1714155311242051300,2.20305126953125,-0.05989979952573776,0.10699024796485901,0.1948649138212204,0.1650138944387436,-0.29394474625587463,-0.9414706230163574,0.07903516292572021,-0.05958610773086548,-0.003612995147705078,0.852895395348708,0.08720678796419051,0.14717223285930578,0.493259471825884
1714155311252041200,2.213041259765625,-0.06911560893058777,0.0717555582523346,0.1645403653383255,0.16532355546951294,-0.29355254769325256,-0.9415386319160461,0.07938161492347717,-0.08983975648880005,-0.006749331951141357,0.8524248845658846,0.08680955209003192,0.1472914848538921,0.49410632445445934
1714155311262030300,2.2230302734375,-0.030755972489714622,0.06162836030125618,0.1278390735387802,0.1654844731092453,-0.29322734475135803,-0.9416117072105408,0.084164559841156,-0.10597303509712219,0.0007852911949157715,0.8520437458617474,0.08650582305426638,0.14734613026401897,0.4948004009833832
1714155311272020200,2.233020263671875,0.03425849974155426,0.049563173204660416,0.08195741474628448,0.16570231318473816,-0.29335305094718933,-0.9415342211723328,0.08455707132816315,-0.10070514678955078,0.004949748516082764,0.8517462113208056,0.0864236160924879,0.14752570431956158,0.49527322676350327
1714155311282009300,2.24300927734375,0.07532870024442673,0.022672705352306366,0.0589173398911953,0.16581444442272186,-0.2939451038837433,-0.941329836845398,0.07760900259017944,-0.08996596932411194,-0.0030823945999145508,0.8515297313464824,0.08660813605678204,0.14776372505676194,0.4955421432961068
1714155311291999200,2.252999267578125,0.10297168046236038,0.0038614666555076838,0.056217294186353683,0.1657763570547104,-0.2948249578475952,-0.9410613179206848,0.06902587413787842,-0.0666252076625824,-0.0062348246574401855,0.8513444841598996,0.08697208411507892,0.1480040196198322,0.49572488388125974
1714155311301988400,2.26298828125,0.11347465217113495,-0.041127048432826996,0.041848741471767426,0.16545385122299194,-0.29590660333633423,-0.9407785534858704,0.07360558211803436,-0.06349888443946838,-0.005129039287567139,0.8511895685489581,0.08750746277534079,0.14816599528887184,0.495848302224209
1714155311311978200,2.272978271484375,0.11106006801128387,-0.0718812346458435,0.01892724633216858,0.16479617357254028,-0.29696905612945557,-0.9405592083930969,0.08486811816692352,-0.07285818457603455,-0.002540767192840576,0.8511066281884425,0.08813600174506078,0.1481635659699324,0.49588026060918566
1714155311321967400,2.28296728515625,0.15123918652534485,-0.07539607584476471,-0.007115804590284824,0.16426503658294678,-0.29829421639442444,-0.9402326941490173,0.09209784865379333,-0.056854069232940674,-0.001738131046295166,0.8510802986032946,0.08887395873448475,0.14827360297900896,0.495760767967655
1714155311331957200,2.292957275390625,0.17372776567935944,-0.086553655564785,-0.02121717669069767,0.1636907309293747,-0.29998865723609924,-0.9397936463356018,0.09273318946361542,-0.04432585835456848,-0.008387446403503418,0.8510872994604635,0.08980509013437,0.148452721105325,0.49552718724981015
1714155311341946400,2.3029462890625,0.18142668902873993,-0.09230341762304306,-0.024372223764657974,0.16303405165672302,-0.3017764687538147,-0.9393353462219238,0.08490599691867828,-0.035213857889175415,-0.010905742645263672,0.85111911356725,0.09080765646453573,0.1486146055767719,0.4952413351759747
1714155311351936300,2.312936279296875,0.20666883885860443,-0.06002696976065636,-0.03242635354399681,0.16249947249889374,-0.30368271470069885,-0.9388134479522705,0.07340139150619507,-0.018491297960281372,0.0007641315460205078,0.8511445470635423,0.09183522016979632,0.14886086524497477,0.4949340527017816
1714155311361925400,2.32292529296875,0.2439696043729782,-0.03368457779288292,-0.05379023402929306,0.16232486069202423,-0.3058108985424042,-0.9381526112556458,0.06277279555797577,0.0021610260009765625,0.005047142505645752,0.8511751231963683,0.09288293918487787,0.14931996879385329,0.49454739946345194
1714155311371915300,2.332915283203125,0.25818929076194763,-0.055969640612602234,-0.07254128158092499,0.1622307449579239,-0.3081551194190979,-0.937401533126831,0.06169196963310242,0.012485623359680176,0.0005576014518737793,0.8512425437471861,0.09402512628423385,0.1498616677185674,0.49405148376290187
1714155311381904400,2.342904296875,0.23738573491573334,-0.06954137980937958,-0.06855373084545135,0.1619579941034317,-0.3104337751865387,-0.9366965889930725,0.0702807754278183,0.017602384090423584,-0.00794452428817749,0.8513406343094079,0.09519016020667326,0.1503014958526994,0.4935255631837992
1714155311391894300,2.352894287109375,0.2108718752861023,-0.06746944040060043,-0.06486918777227402,0.16167478263378143,-0.3125177323818207,-0.9360523223876953,0.07210509479045868,0.018999725580215454,-0.010343551635742188,0.8514368016948691,0.09626708209478975,0.1506867425064789,0.4930329798774131
1714155311401883400,2.36288330078125,0.14529313147068024,-0.07748612016439438,-0.05236111208796501,0.16133704781532288,-0.31417667865753174,-0.935555100440979,0.06360799074172974,0.007963359355926514,-0.007972121238708496,0.8515446692933295,0.09716165254462764,0.1509372558239225,0.4925944522769287
1714155311411873300,2.372873291015625,0.09282663464546204,-0.07233929634094238,-0.04736402630805969,0.1609671413898468,-0.3152218759059906,-0.9352672100067139,0.052121832966804504,0.00017371773719787598,-0.010258913040161133,0.8516662547083442,0.09777961311956372,0.15101503537955652,0.4922379978722964
1714155311421862400,2.3828623046875,0.0639244094491005,-0.050808701664209366,-0.038766276091337204,0.1607009619474411,-0.31588274240493774,-0.9350900053977966,0.03891448676586151,0.0027571916580200195,-0.01103121042251587,0.8517798524853624,0.09818949770163116,0.15104246727354798,0.49195125354090957
1714155311431852300,2.392852294921875,0.043140459805727005,-0.022024724632501602,-0.028832552954554558,0.16065862774848938,-0.3162977397441864,-0.934956967830658,0.023179247975349426,0.0030195415019989014,-0.001993715763092041,0.8518688523173209,0.09842264271017007,0.15111086429954568,0.4917295633896638
1714155311441841400,2.40284130859375,0.23889771103858948,0.13151636719703674,-0.05723782628774643,0.16123022139072418,-0.3169770836830139,-0.934628427028656,0.013818591833114624,0.005331635475158691,0.013562142848968506,0.8519120060452309,0.09862043260019487,0.15152486300891332,0.4914877762579387
1714155311451831300,2.412831298828125,0.2055756002664566,-0.01871201954782009,-0.19373375177383423,0.16322354972362518,-0.31957364082336426,-0.9333974123001099,0.012786582112312317,0.005441009998321533,0.017900586128234863,0.8519781569666112,0.0993941487218462,0.15304276226713776,0.4907463797821825
1714155311461820400,2.4228203125,-0.19701258838176727,-0.21382425725460052,-0.07256098836660385,0.16297647356987,-0.3186938464641571,-0.9337413311004639,0.02113606035709381,-0.05624505877494812,-0.002125978469848633,0.8524649781224286,0.0991882908513877,0.1526139101636338,0.4900757736449053
1714155311471810300,2.432810302734375,0.07122199982404709,-0.2693421244621277,-0.04894527420401573,0.16094346344470978,-0.31774431467056274,-0.9344173073768616,0.05640271306037903,0.0015975236892700195,0.03829914331436157,0.8528274185773324,0.09933359092558426,0.15140731137329036,0.48978977261649537
1714155311481800200,2.44280029296875,0.16146960854530334,-0.01340487226843834,-0.11221478879451752,0.16001898050308228,-0.3186713755130768,-0.934260368347168,0.05624382197856903,0.10022658109664917,0.01868724822998047,0.8531222447328286,0.10008218632915876,0.15117327858106175,0.48919593913194626
1714155311491789300,2.452789306640625,0.2838340997695923,0.191702738404274,0.02874685451388359,0.16132360696792603,-0.32052066922187805,-0.9334030151367188,-0.03345496952533722,0.05817633867263794,-0.02783966064453125,0.8530418151909629,0.10062398207962535,0.1522277904265912,0.48889803460071296
1714155311501779200,2.462779296875,0.18003177642822266,0.10826243460178375,0.029896540567278862,0.16282324492931366,-0.3229457139968872,-0.9323061108589172,-0.09000833332538605,0.03661459684371948,-0.0036069750785827637,0.8526970033894403,0.10131122644123733,0.15356753423118139,0.4889384637957165
1714155311511768300,2.472768310546875,-0.054984189569950104,-0.07541045546531677,-0.011310616508126259,0.1629870980978012,-0.3234293460845947,-0.9321097731590271,-0.0330280065536499,-0.028041541576385498,-0.0050697922706604,0.8526441178017634,0.1014853372010637,0.153772017183162,0.4889303073627883
1714155311521758200,2.48275830078125,-0.13966631889343262,-0.12032067030668259,-0.06838694959878922,0.16212555766105652,-0.3224107623100281,-0.9326127767562866,0.07537747919559479,-0.060188084840774536,0.02225816249847412,0.8528798015844403,0.10127968251686068,0.15308829961960752,0.48877662065308314
1714155311531747300,2.492747314453125,-0.155742809176445,-0.035765305161476135,-0.05943267419934273,0.1616189330816269,-0.32085755467414856,-0.9332361817359924,0.06756804883480072,-0.03142207860946655,0.02294260263442993,0.853190600267457,0.10076017685144541,0.15241160529426123,0.4885529431183494
1714155311541737200,2.5027373046875,-0.06738178431987762,0.033802323043346405,-0.009063241071999073,0.16177134215831757,-0.31982117891311646,-0.9335654377937317,-0.01865917444229126,0.00889289379119873,0.00979834794998169,0.8533179160374804,0.10027280616586848,0.15219278220462013,0.48849893602927796
1714155311551726300,2.512726318359375,0.008480644784867764,0.03954915702342987,0.0026097262743860483,0.16223524510860443,-0.3195978105068207,-0.9335614442825317,-0.051044464111328125,0.043856263160705566,0.0018140077590942383,0.8533004599083452,0.10005194583101874,0.15234463100680692,0.48852741707462866
1714155311561716200,2.52271630859375,0.03273698315024376,0.01962604932487011,-0.011555627919733524,0.16265752911567688,-0.3196195065975189,-0.9334805607795715,-0.025526806712150574,0.04641091823577881,-0.004126310348510742,0.8532881289393326,0.09995861989276653,0.15253853762719038,0.4885077081203958
1714155311571705300,2.532705322265625,0.013740280643105507,-0.0010776319541037083,-0.01925515942275524,0.16274340450763702,-0.3197087049484253,-0.9334350228309631,0.011435642838478088,0.03253835439682007,0.007302820682525635,0.8533198897369868,0.09999052099494782,0.15259220937863235,0.4884289295166288
1714155311581695200,2.5426953125,-0.01527725625783205,-0.010453556664288044,-0.009574568830430508,0.16258585453033447,-0.3196202516555786,-0.9334927797317505,0.022045448422431946,0.014963328838348389,0.010580182075500488,0.8533701721296654,0.10000153075931452,0.15249036773166777,0.48837053893481774
1714155311591684400,2.552684326171875,-0.043722957372665405,-0.0029287950601428747,0.006168374791741371,0.1624385565519333,-0.3194063603878021,-0.9335916042327881,0.009207546710968018,0.0021303892135620117,0.007352590560913086,0.853383558048129,0.09993913705972625,0.15236915485988103,0.4883978011687128
1714155311601674200,2.56267431640625,-0.0745072290301323,-0.000338604673743248,0.010830771178007126,0.16252051293849945,-0.3189719319343567,-0.933725893497467,-0.007948994636535645,-0.003141075372695923,0.009668827056884766,0.8533839066446767,0.09971409416452993,0.1522962946026249,0.488466020516062
1714155311611663400,2.572663330078125,-0.08593618869781494,-0.0016651253681629896,0.017101982608437538,0.16256918013095856,-0.3183120787143707,-0.9339425563812256,-0.015291363000869751,-0.010407984256744385,0.008207082748413086,0.8533834595122991,0.09938999573798564,0.1521523816534502,0.4885777105315353
1714155311621653200,2.5826533203125,-0.06804666668176651,0.01084054633975029,0.013335740193724632,0.16252045333385468,-0.317614883184433,-0.9341883659362793,-0.01866060495376587,-0.009548753499984741,0.008101940155029297,0.8533783559198769,0.0990699545760894,0.151957118108219,0.4887121528119866
1714155311631642400,2.592642333984375,-0.039060138165950775,0.012608619406819344,-0.0012533219996839762,0.1625533252954483,-0.3170481026172638,-0.9343751668930054,-0.013780161738395691,-0.001173853874206543,0.011813521385192871,0.8533868764938473,0.09879664887862914,0.15182768631571508,0.48879283295086406
1714155311641632300,2.60263232421875,-0.02818298526108265,0.019520055502653122,-0.008313894271850586,0.162675678730011,-0.3166404366493225,-0.9344921112060547,-0.01024039089679718,0.0060783326625823975,0.009565293788909912,0.8534083729458481,0.09858156563500733,0.15177493387548682,0.488815129492288
1714155311651621400,2.612621337890625,-0.04053206741809845,0.0211845301091671,-0.014639568515121937,0.16293886303901672,-0.31622952222824097,-0.9345853924751282,-0.008382618427276611,0.006140470504760742,0.014526188373565674,0.853442448541041,0.0983355903292241,0.15178083695268585,0.48880343957664957
1714155311661611300,2.622611328125,-0.05456665903329849,0.0069872187450528145,-0.020423686131834984,0.16320616006851196,-0.3157331049442291,-0.9347065687179565,-0.006727293133735657,-0.008165150880813599,0.022749781608581543,0.8534979005465348,0.09805490592332508,0.15176280696168498,0.48876861224882195
1714155311671600400,2.632600341796875,-0.07440262287855148,0.00035301828756928444,-0.020340530201792717,0.16333168745040894,-0.315110981464386,-0.9348945617675781,-0.004502981901168823,-0.023634105920791626,0.025699615478515625,0.8535722157348304,0.09775416928392372,0.1516470832930996,0.4887350655712406
1714155311681590300,2.64259033203125,-0.060277488082647324,0.0032737068831920624,-0.02186226099729538,0.1633542776107788,-0.31451085209846497,-0.9350926876068115,-0.006234556436538696,-0.02344074845314026,0.023349523544311523,0.8536459474681246,0.09748809024769828,0.15149170910223725,0.4887073636254453
1714155311691579400,2.652579345703125,-0.04359927773475647,-0.0008113158401101828,-0.020053774118423462,0.1632988452911377,-0.31413382291793823,-0.9352290630340576,-0.01374746859073639,-0.018172025680541992,0.012774229049682617,0.8537075042232836,0.09734204809736467,0.1513604365507849,0.48866979190611537
1714155311701569300,2.6625693359375,-0.024266596883535385,-0.011679143644869328,-0.014429178088903427,0.1631731539964676,-0.31392890214920044,-0.9353198409080505,-0.014430493116378784,-0.013967156410217285,0.009782671928405762,0.8537598800489263,0.09729113720769451,0.15124325788479964,0.4886246725207678
1714155311711558400,2.672558349609375,-0.002983837854117155,-0.028592878952622414,-0.013873975723981857,0.1629360467195511,-0.3138442039489746,-0.9353895783424377,-0.010622844099998474,-0.012266606092453003,0.013789236545562744,0.8538165612381039,0.09732463615312632,0.15110632265290794,0.488561359188799
1714155311721548300,2.68254833984375,0.022799555212259293,-0.03524971753358841,-0.005497535225003958,0.16258831322193146,-0.31395474076271057,-0.9354130029678345,-0.010931223630905151,-0.008402407169342041,0.013721108436584473,0.8538560111654259,0.09747118529005662,0.1509730722154505,0.48850444204389876
1714155311731537400,2.692537353515625,0.04574700444936752,-0.024762988090515137,-0.015677735209465027,0.1623114049434662,-0.31428220868110657,-0.9353511333465576,-0.014514803886413574,0.004238903522491455,0.015459775924682617,0.8538837565996397,0.09769988871465847,0.15092768944670612,0.4884242864057584
1714155311741527300,2.70252734375,0.05567100644111633,-0.02905600145459175,-0.013919249176979065,0.16209638118743896,-0.3149023652076721,-0.9351798295974731,-0.017290502786636353,0.0069037675857543945,0.013671040534973145,0.8539036376516133,0.09804997803264227,0.15098443504184061,0.48830165045056384
1714155311751516400,2.712516357421875,0.045993342995643616,-0.03331972286105156,-0.009355589747428894,0.16179992258548737,-0.3156355023384094,-0.9349839687347412,-0.01455262303352356,0.0012434422969818115,0.009355306625366211,0.8539078473991097,0.0984679114443298,0.1510366906185528,0.48819412811051455
1714155311761506300,2.72250634765625,0.02334316074848175,-0.02430066280066967,-0.006349147297441959,0.16152533888816833,-0.31618356704711914,-0.9348462224006653,-0.012065529823303223,-0.0003752410411834717,0.008530914783477783,0.8539081091751997,0.09879208044144695,0.15105296903894266,0.4881229576536922
1714155311771495400,2.732495361328125,-0.0028082821518182755,-0.0329415537416935,-0.01243553590029478,0.16121791303157806,-0.3164389133453369,-0.9348129034042358,-0.012398958206176758,-0.006253927946090698,0.00553739070892334,0.8539302078591704,0.0989922928004186,0.15097703692706518,0.48806726027876934
1714155311781485300,2.7424853515625,-0.027013221755623817,-0.03801940381526947,-0.016961311921477318,0.16082660853862762,-0.3163992166519165,-0.934893786907196,-0.008360818028450012,-0.005927413702011108,0.0020018815994262695,0.8539877933466957,0.09908367888651509,0.15078310789305835,0.4880079766909685
1714155311791475200,2.75247509765625,-0.04682820662856102,-0.03139692172408104,-0.029346873983740807,0.1604980230331421,-0.316150426864624,-0.9350343942642212,-0.006079092621803284,-0.0023310184478759766,0.0013033151626586914,0.8540787131958771,0.09907161048234506,0.15055769875696673,0.48792093972919454
1714155311801464300,2.76246435546875,-0.07220067083835602,-0.04652021452784538,-0.04297613352537155,0.16020774841308594,-0.31565868854522705,-0.9352502822875977,-0.010717421770095825,-0.006515294313430786,-0.0015783309936523438,0.8542155862448199,0.09894976414131385,0.1502791113620295,0.48779180452766707
1714155311811454200,2.7724541015625,-0.08687538653612137,-0.04655856266617775,-0.044833555817604065,0.1598166674375534,-0.31484130024909973,-0.9355926513671875,-0.0159720778465271,-0.01210874319076538,-0.0068359375,0.8544001262457528,0.09871227511676875,0.14986514177620044,0.4876441701851657
1714155311821443300,2.782443359375,-0.08580399304628372,-0.038941122591495514,-0.03134278208017349,0.15944704413414001,-0.3139837384223938,-0.9359438419342041,-0.021751761436462402,-0.016567319631576538,-0.010543584823608398,0.8545687148631911,0.0984458783855866,0.14945399675602328,0.4875286579847341
1714155311831433200,2.79243310546875,-0.08477579802274704,-0.03896376118063927,-0.020590733736753464,0.15908776223659515,-0.31319594383239746,-0.9362688660621643,-0.02705349028110504,-0.019766032695770264,-0.008463799953460693,0.854692660644649,0.09819632040914636,0.14907398515126605,0.4874781102070067
1714155311841422300,2.80242236328125,-0.07799912244081497,-0.013656007125973701,-0.029388753697276115,0.1588478535413742,-0.3124781847000122,-0.9365493655204773,-0.0257759690284729,-0.012610286474227905,-0.006550610065460205,0.8547995636685761,0.0979464963236545,0.14876756085543755,0.48743468861300887
1714155311851411700,2.81241162109375,-0.06776778399944305,0.009360095486044884,-0.03262702375650406,0.15884444117546082,-0.3118935227394104,-0.9367448091506958,-0.025940418243408203,0.0029793977737426758,-0.006095767021179199,0.8549016500227817,0.09770236545405551,0.14859957783222164,0.48735568913902094
1714155311861400800,2.82240087890625,-0.051525965332984924,-0.013818461447954178,-0.013763854280114174,0.15885098278522491,-0.3114032447338104,-0.9369068145751953,-0.023658141493797302,0.0024586021900177,-0.0057506561279296875,0.8549752995691624,0.09749176535812625,0.14846530770153213,0.48730965112599334
1714155311871390700,2.832390625,-0.026764854788780212,-0.025761939585208893,-0.007017667405307293,0.15863686800003052,-0.3111008405685425,-0.9370435476303101,-0.014822795987129211,-0.004084676504135132,-0.0016924142837524414,0.8550252082829293,0.09741470663885085,0.14828553254685897,0.48729225700101053
1714155311881379800,2.8423798828125,0.03203827515244484,0.002885418012738228,-0.023540982976555824,0.1584785282611847,-0.311185359954834,-0.9370422959327698,-0.009979993104934692,0.00797802209854126,0.0031585693359375,0.8550569709197133,0.0975016220069958,0.14823053524077548,0.4872359135321
1714155311891369700,2.85236962890625,0.07045970112085342,0.0251060351729393,-0.030202016234397888,0.1585829257965088,-0.3118293583393097,-0.9368104934692383,-0.018781930208206177,0.021714061498641968,0.004681587219238281,0.8550689765968353,0.09778471590542552,0.14843482111730846,0.48709600973451084
1714155311901358800,2.86235888671875,0.05823339521884918,0.015136225149035454,-0.017606329172849655,0.15867674350738525,-0.31257230043411255,-0.9365469813346863,-0.025711670517921448,0.017314761877059937,-0.0027077794075012207,0.8550675557640912,0.09811316367012356,0.1486617591222635,0.4869629504682396
1714155311911348700,2.8723486328125,0.0282346960157156,-0.009203202091157436,-0.005614647641777992,0.15850655734539032,-0.31316202878952026,-0.9363787770271301,-0.024763286113739014,0.00006696581840515137,-0.002692878246307373,0.8550537319864324,0.09842773321353386,0.14873664972610162,0.48690089714648754
1714155311921337900,2.882337890625,0.005624724086374044,-0.014598499983549118,-0.00603462802246213,0.15818578004837036,-0.3134055733680725,-0.9363515377044678,-0.01768288016319275,-0.018839269876480103,0.009288549423217773,0.8550553809038173,0.09861895313714235,0.14865574597731762,0.48688413863221
1714155311931327700,2.89232763671875,0.02788155898451805,0.0013620899990200996,-0.01086626760661602,0.15796421468257904,-0.3134964406490326,-0.9363585114479065,-0.017629146575927734,-0.01352989673614502,0.018160879611968994,0.855079380774883,0.09872147307493143,0.1485759333624668,0.4868455289408852
1714155311941316900,2.90231689453125,0.04364614188671112,0.004179980605840683,-0.003850436769425869,0.15788044035434723,-0.3138027787208557,-0.9362700581550598,-0.021985679864883423,-0.0003908872604370117,0.014745950698852539,0.855077241940382,0.09888537592045926,0.14861582234167076,0.48680388672376984
1714155311951306800,2.912306640625,0.02328941784799099,-0.0033024365548044443,0.007339566946029663,0.15774822235107422,-0.3141632080078125,-0.9361714720726013,-0.020373359322547913,-0.0019225776195526123,0.011397242546081543,0.8550513148517951,0.09907906437512244,0.14865267352195133,0.48679865819837187
1714155311961296000,2.9222958984375,0.026505984365940094,-0.006207678467035294,0.010853075422346592,0.1576240360736847,-0.3143075108528137,-0.9361439347267151,-0.014038845896720886,-0.004952102899551392,0.016908705234527588,0.8550279520349597,0.09916942289474089,0.14863868719997933,0.4868256373871736
1714155311971285800,2.93228564453125,0.04405009001493454,-0.02026703953742981,0.009292729198932648,0.1573653519153595,-0.31448832154273987,-0.936126708984375,-0.010499522089958191,-0.006358206272125244,0.0190582275390625,0.8550099195769036,0.0993104196045608,0.14857348185840133,0.486848456393574
1714155311981275000,2.94227490234375,0.07960542291402817,-0.01313402783125639,0.0033805116545408964,0.1569972187280655,-0.31490159034729004,-0.9360495805740356,-0.012542277574539185,0.0021727681159973145,0.017775654792785645,0.854992109197607,0.09958721969061295,0.14851794844340988,0.4868402462126844
1714155311991264800,2.9522646484375,0.11873854696750641,0.016060873866081238,-0.012761040590703487,0.156873881816864,-0.3158271610736847,-0.9357584118843079,-0.018720820546150208,0.01721268892288208,0.02212315797805786,0.8549557996890123,0.10004304283509527,0.14870165070461183,0.48675447764705815
1714155312001254000,2.96225390625,0.13039599359035492,0.0021349394228309393,-0.004635469987988472,0.15691275894641876,-0.31713995337486267,-0.9353078007698059,-0.02423761785030365,0.008881956338882446,0.019261658191680908,0.8548999063289767,0.10063815949952608,0.14905725746855553,0.48662117622556733
1714155312011243800,2.972243896484375,0.13457338511943817,0.014851800166070461,0.019263137131929398,0.1568257212638855,-0.31853529810905457,-0.9348480701446533,-0.024104803800582886,0.0004658997058868408,0.013629257678985596,0.8547875468413264,0.10128514673291905,0.1493896562011169,0.48658228938654
1714155312021233000,2.98223291015625,0.14355063438415527,0.02034110762178898,-0.0016914120642468333,0.15687832236289978,-0.3198668956756592,-0.9343844652175903,-0.023638591170310974,0.013745099306106567,0.019665837287902832,0.8546832417874403,0.10187182711779733,0.14976611297593997,0.4865273260079155
1714155312031222800,2.992222900390625,0.150955930352211,0.01909474842250347,0.03686889633536339,0.1569570004940033,-0.321274071931839,-0.9338883757591248,-0.035329222679138184,0.009796500205993652,0.025074899196624756,0.8545556265109799,0.10248134716331483,0.15017785983579177,0.48649668073587615
1714155312041212700,3.002212646484375,0.14136429131031036,0.01836797222495079,0.062246426939964294,0.15690696239471436,-0.3227306008338928,-0.9333944320678711,-0.03912439942359924,-0.00173225998878479,0.022383689880371094,0.8543365784047188,0.10311670835941333,0.15056467991595282,0.4866275295323432
1714155312051201800,3.012201904296875,0.15018408000469208,0.024478327482938766,0.06683439016342163,0.15685799717903137,-0.3242039382457733,-0.9328919053077698,-0.032331034541130066,0.00956776738166809,0.019012510776519775,0.8540849855422268,0.10375001130878991,0.15096346463860513,0.48681082597739034
1714155312061191700,3.022191650390625,0.17878350615501404,0.05381118506193161,0.09539679437875748,0.1568993628025055,-0.3258449137210846,-0.932313084602356,-0.04267209768295288,0.020440340042114258,0.014847874641418457,0.853780338138121,0.10442536777757325,0.15145562469503618,0.4870478462368306
1714155312071180800,3.032180908203125,0.19679580628871918,0.07624511420726776,0.13641612231731415,0.1570805013179779,-0.3276788294315338,-0.931639552116394,-0.05730330944061279,0.03162786364555359,0.009657800197601318,0.8533623038083155,0.10512430964491044,0.15208250834349743,0.487434655385209
1714155312081170700,3.042170654296875,0.21433591842651367,0.08997371047735214,0.18543799221515656,0.1572728157043457,-0.329814612865448,-0.9308531284332275,-0.0650944858789444,0.03754782676696777,0.001608133316040039,0.8527994670265864,0.10591902624732798,0.15282208031345143,0.48801601205733086
1714155312091159800,3.052159912109375,0.2212463915348053,0.08466257154941559,0.2376936823129654,0.15732136368751526,-0.3321515619754791,-0.9300135970115662,-0.06485313177108765,0.0279524028301239,0.005605638027191162,0.8521024589755388,0.10680133343574257,0.15357950874388432,0.4888028562806007
1714155312101149700,3.062149658203125,0.21322360634803772,0.09437911212444305,0.26916614174842834,0.15724705159664154,-0.3345085680484772,-0.9291810393333435,-0.05930091440677643,0.02141350507736206,0.011792123317718506,0.851298644162808,0.10768855755873492,0.15431350155448864,0.48977669485791786
1714155312111138800,3.072138916015625,0.22087977826595306,0.11048564314842224,0.27353429794311523,0.15720759332180023,-0.3369051218032837,-0.9283214807510376,-0.051799923181533813,0.030966460704803467,0.015357613563537598,0.8504394824714608,0.10856865046263002,0.15508745094105145,0.49082945534807093
1714155312121128700,3.082128662109375,0.22119562327861786,0.13219253718852997,0.2789514362812042,0.15733638405799866,-0.3393787145614624,-0.927398145198822,-0.04507748782634735,0.03264656662940979,0.02450507879257202,0.8495469839838872,0.1094344969774976,0.1559647689314016,0.4919034386903931
1714155312131117800,3.092117919921875,0.19773615896701813,0.11029496043920517,0.27731579542160034,0.1574602723121643,-0.34172311425209045,-0.9265158176422119,-0.024144247174263,0.01191970705986023,0.033296823501586914,0.8486526575221687,0.11023873894639577,0.1568104103120257,0.49299763349575126
1714155312141107700,3.102107666015625,0.16697292029857635,0.06061422824859619,0.2601093649864197,0.15724240243434906,-0.3437694013118744,-0.9257955551147461,0.010802626609802246,-0.020595192909240723,0.040175437927246094,0.8478190843601026,0.11100152005645403,0.15741943867634328,0.4940653557883706
1714155312151096800,3.112096923828125,0.15454372763633728,0.0029362845234572887,0.20580752193927765,0.15658678114414215,-0.3454967737197876,-0.925263524055481,0.042937129735946655,-0.037880271673202515,0.04579269886016846,0.8471374146902875,0.11176561976124565,0.15772344514337883,0.49496474872469304
1714155312161086700,3.122086669921875,0.17015917599201202,-0.01073505263775587,0.14056698977947235,0.1558012217283249,-0.3471318781375885,-0.9247840046882629,0.05797438323497772,-0.029134541749954224,0.03644782304763794,0.8466380580639763,0.11257556222516392,0.15790739472777338,0.4955764437218031
1714155312171075800,3.132075927734375,0.1676263064146042,-0.029018450528383255,0.08380112051963806,0.15513776242733002,-0.34882432222366333,-0.9242585301399231,0.05779862403869629,-0.021369099617004395,0.031482040882110596,0.8462901273845151,0.11343219909682971,0.15812608643772552,0.49590559381016136
1714155312181065700,3.142065673828125,0.10478076338768005,-0.07083674520254135,0.05261150747537613,0.15438416600227356,-0.350179523229599,-0.923872172832489,0.05933041870594025,-0.035287946462631226,0.02967667579650879,0.8460852462388508,0.11419566411875659,0.15818739618675953,0.49606035925850045
1714155312191054800,3.152054931640625,0.010671520605683327,-0.10573294013738632,0.0020129119511693716,0.15340617299079895,-0.3507087528705597,-0.9238343238830566,0.06322282552719116,-0.04821699857711792,0.03227853775024414,0.8460574857597041,0.11467553135388318,0.15789979760680356,0.496088551900602
1714155312201044700,3.162044677734375,-0.05533652380108833,-0.12842680513858795,-0.06083476170897484,0.15238845348358154,-0.350384920835495,-0.924125611782074,0.06143294274806976,-0.05433917045593262,0.028556764125823975,0.8462429777166216,0.11482540360934251,0.15732869839919428,0.495918859087223
1714155312211033900,3.172033935546875,-0.10976861417293549,-0.1403931826353073,-0.08914769440889359,0.151399627327919,-0.3494686484336853,-0.9246349930763245,0.0539378821849823,-0.06355622410774231,0.016889572143554688,0.8465885543599738,0.11473583719831175,0.15658288699935397,0.4955859076328224
1714155312221023700,3.182023681640625,-0.14933092892169952,-0.16369611024856567,-0.09597150981426239,0.15033674240112305,-0.3481576442718506,-0.9253027439117432,0.04706619679927826,-0.07036039233207703,0.005289256572723389,0.8470102789774687,0.11449943333567465,0.15568725404478664,0.4952018929645706
1714155312231012900,3.192012939453125,-0.1732489913702011,-0.17032179236412048,-0.1095876544713974,0.14918984472751617,-0.34657564759254456,-0.9260818958282471,0.04307088255882263,-0.06100183725357056,-0.00417017936706543,0.8474767662928017,0.11416756425671466,0.15467646039443333,0.49479714092878235
1714155312241002800,3.202002685546875,-0.17179223895072937,-0.17437857389450073,-0.1362685263156891,0.14810211956501007,-0.34483933448791504,-0.9269043207168579,0.03857387602329254,-0.043847739696502686,-0.01251828670501709,0.8480061924589688,0.11376704388040737,0.15363887077838068,0.4943052868863364
1714155312250991900,3.211991943359375,-0.15759114921092987,-0.15872611105442047,-0.1547924280166626,0.147139772772789,-0.3431527614593506,-0.9276831746101379,0.03122018277645111,-0.02629294991493225,-0.02438896894454956,0.8485879476272074,0.11337565559187043,0.1526577091542551,0.4937003957861916
1714155312260981800,3.221981689453125,-0.13309086859226227,-0.15062691271305084,-0.1481073498725891,0.14637219905853271,-0.3417128324508667,-0.9283359050750732,0.02477036416530609,-0.019401639699935913,-0.028329133987426758,0.8491517325635309,0.11304854321544774,0.15182911382772,0.49306126959007246
1714155312270972000,3.231971923828125,-0.10405299067497253,-0.15960122644901276,-0.14570137858390808,0.1456734836101532,-0.3406757116317749,-0.9288268685340881,0.024507775902748108,-0.02944144606590271,-0.02739572525024414,0.8496706095037563,0.11288219312058692,0.15114294222639105,0.49241578141705766
1714155312280960800,3.241960693359375,-0.07549670338630676,-0.1659824401140213,-0.1495877355337143,0.1448671519756317,-0.3399488627910614,-0.9292191863059998,0.0274045467376709,-0.03424236178398132,-0.030375540256500244,0.8501801189142094,0.11288582651110396,0.15048986600673717,0.49173503395799834
1714155312290951000,3.251950927734375,-0.014265520498156548,-0.16367986798286438,-0.14854563772678375,0.14399170875549316,-0.3396059572696686,-0.9294806122779846,0.025090903043746948,-0.021661072969436646,-0.033364295959472656,0.8506732100846939,0.11308309494942997,0.1499063537600391,0.4910147157878991
1714155312300939800,3.261939697265625,0.036659445613622665,-0.13872765004634857,-0.14231756329536438,0.1432068645954132,-0.3398068845272064,-0.9295284152030945,0.010815337300300598,-0.007177948951721191,-0.03913003206253052,0.8511123958408937,0.1135006747584077,0.14951050220816736,0.4902773161488241
1714155312310930000,3.271929931640625,0.05936816707253456,-0.09939008951187134,-0.12910357117652893,0.1426781266927719,-0.34031546115875244,-0.9294236898422241,-0.009072184562683105,0.011168152093887329,-0.037617385387420654,0.8514770966879794,0.11398066335518192,0.14932038048828733,0.48959025827724056
1714155312320918800,3.281918701171875,0.05461149662733078,-0.07347779721021652,-0.11517949402332306,0.14238761365413666,-0.34079545736312866,-0.9292923212051392,-0.021995797753334045,0.01750752329826355,-0.03344571590423584,0.8518002650487375,0.11437753434620766,0.14923677643574543,0.4889606845157356
1714155312330909000,3.291908935546875,0.041256170719861984,-0.06182326748967171,-0.09663104265928268,0.14218458533287048,-0.34113457798957825,-0.9291989803314209,-0.02925431728363037,0.008416742086410522,-0.0305483341217041,0.8520748266762815,0.1146716223896026,0.14916746153320487,0.4884342123936053
1714155312340897800,3.301897705078125,0.03900739550590515,-0.05738537758588791,-0.06270530074834824,0.14193683862686157,-0.3413993716239929,-0.9291396141052246,-0.028533533215522766,-0.0028541386127471924,-0.02967691421508789,0.8522919011616877,0.11492334034105084,0.14907320819440673,0.4880250390431877
1714155312350888000,3.311887939453125,0.059453174471855164,-0.029885046184062958,-0.046057745814323425,0.14174522459506989,-0.3417995274066925,-0.9290217757225037,-0.02590051293373108,-0.0004856288433074951,-0.027002453804016113,0.8524326454679336,0.1152030600801265,0.14905495979800903,0.48771880658697153
1714155312360876800,3.321876708984375,0.09063345938920975,-0.003429203061386943,-0.031320877373218536,0.1417732685804367,-0.342486172914505,-0.9287645220756531,-0.0296822190284729,0.005755245685577393,-0.023216068744659424,0.8524932806974156,0.11554308065757032,0.1492230733419972,0.4874808274509179
1714155312370867000,3.331866943359375,0.13310779631137848,0.012215537019073963,-0.02473561093211174,0.1419515609741211,-0.34350788593292236,-0.928359866142273,-0.03489592671394348,0.009370982646942139,-0.01632702350616455,0.8524937341340735,0.1159893848919705,0.14955440644537765,0.487272287958631
1714155312380855800,3.341855712890625,0.14675089716911316,0.03568810597062111,-0.030289100483059883,0.14227856695652008,-0.34477001428604126,-0.92784184217453,-0.03226272761821747,0.015592187643051147,-0.009047865867614746,0.852455685859832,0.11650386688451085,0.15001976957236338,0.4870732621900574
1714155312390846000,3.351845947265625,0.15878349542617798,0.05109502375125885,-0.033371977508068085,0.14277797937393188,-0.34605729579925537,-0.9272857308387756,-0.02624662220478058,0.015506178140640259,0.0028625130653381348,0.8524186587807323,0.11699035420615692,0.15056690518942334,0.48685255912990033
1714155312400834800,3.361834716796875,0.15887697041034698,0.0441947765648365,-0.028004374355077744,0.14330486953258514,-0.3473818600177765,-0.926708996295929,-0.018228605389595032,0.003784477710723877,0.008618175983428955,0.8523762445892352,0.11748714050981504,0.15113660927462017,0.4866304439073123
1714155312410825000,3.371824951171875,0.12414263188838959,0.024847975000739098,-0.014128041453659534,0.14358749985694885,-0.3485529124736786,-0.9262254238128662,-0.011599019169807434,-0.009341925382614136,0.007951498031616211,0.8523311653323538,0.11796790374492228,0.15156144083452025,0.48646103243328426
1714155312420813800,3.381813720703125,0.07919007539749146,0.02661924436688423,-0.019290046766400337,0.14373217523097992,-0.34939321875572205,-0.925886332988739,-0.006631970405578613,-0.006609559059143066,0.007322430610656738,0.8522928553960791,0.11832506212273022,0.15184210991522784,0.48635390935119716
1714155312430804000,3.391803955078125,0.05370064079761505,0.01968277432024479,-0.007936058565974236,0.14385339617729187,-0.3498772978782654,-0.9256846904754639,-0.006371721625328064,-0.0076666176319122314,0.013514220714569092,0.8522750031867006,0.1185232184155814,0.15201943803456586,0.4862816833185379
1714155312440792800,3.401792724609375,0.03538421541452408,0.01243577990680933,-0.006692096125334501,0.1437946856021881,-0.35010817646980286,-0.9256064891815186,-0.005489066243171692,-0.011387735605239868,0.018700361251831055,0.8522690113457769,0.11864623682967285,0.15205208247688295,0.4862516941620424
1714155312450783000,3.411782958984375,0.043803535401821136,0.03300044313073158,-0.01822897605597973,0.1438034027814865,-0.3502926826477051,-0.9255353212356567,-0.002461254596710205,-0.0016207396984100342,0.01601994037628174,0.8522749006178252,0.11873459761720404,0.15210005960381767,0.48620506860547646
1714155312460772900,3.42177294921875,0.05492010340094566,0.04754023626446724,-0.02208443358540535,0.14404860138893127,-0.3505425453186035,-0.9254025816917419,-0.004842698574066162,0.0028863251209259033,0.013918817043304443,0.852282030015014,0.11879881895486605,0.1522680151983101,0.48612426987257784
1714155312470762000,3.431761962890625,0.03742377460002899,0.03200708329677582,-0.011981532908976078,0.14431892335414886,-0.3508131206035614,-0.9252579212188721,-0.0037854909896850586,-0.010789602994918823,0.01018834114074707,0.8522730475764184,0.11886205897484058,0.15245607800126534,0.48606547299054315
1714155312480751900,3.441751953125,0.013507254421710968,0.02390974387526512,-0.007236845791339874,0.14447513222694397,-0.350998193025589,-0.9251633286476135,0.0031078755855560303,-0.014724433422088623,0.010124266147613525,0.8522650356968586,0.11891153699802703,0.15257253334244708,0.48603082725372465
1714155312490741000,3.451740966796875,-0.0023178872652351856,0.024282585829496384,-0.017738156020641327,0.14465443789958954,-0.35111913084983826,-0.925089418888092,0.007063686847686768,-0.0061196088790893555,0.008524477481842041,0.8522633011459408,0.11892665901151553,0.1526817963173048,0.4859959524544371
1714155312500731000,3.46173095703125,-0.021723009645938873,0.0207203421741724,-0.027482662349939346,0.14488856494426727,-0.35102301836013794,-0.9250892400741577,0.006722733378410339,-0.003865838050842285,0.00458759069442749,0.8523010600257063,0.11883689481021695,0.1527519502759636,0.4859296217141338
1714155312510720000,3.471719970703125,-0.029806289821863174,0.012928465381264687,-0.02176605351269245,0.14508749544620514,-0.3508571684360504,-0.925121009349823,0.008675307035446167,-0.0034213364124298096,0.0034290552139282227,0.8523464993631851,0.11872435718015281,0.15278751679065716,0.48586627176982
1714155312520710000,3.4817099609375,-0.03423992171883583,0.003156527876853943,-0.017641883343458176,0.14516395330429077,-0.35070091485977173,-0.9251682758331299,0.00844624638557434,-0.001639723777770996,0.002148866653442383,0.8523858833895139,0.11864350611773446,0.15277300166142394,0.48582153845058096
1714155312530699000,3.491698974609375,-0.041001737117767334,0.0007516935002058744,-0.021281225606799126,0.14523150026798248,-0.3503848910331726,-0.9252774119377136,0.005830481648445129,0.0008671283721923828,0.002303779125213623,0.8524451837646345,0.11849423893334138,0.15271025578630612,0.48577357004407085
1714155312540689000,3.50168896484375,-0.024111174046993256,0.0341743640601635,-0.02852182649075985,0.14546215534210205,-0.35006284713745117,-0.9253630638122559,0.0027159303426742554,0.012782633304595947,0.001107633113861084,0.8525080624170794,0.11830461583587198,0.15271703039932724,0.4857073813008409
1714155312550678000,3.511677978515625,-0.02231268770992756,0.03310111165046692,-0.029543748125433922,0.14583736658096313,-0.3499460220336914,-0.925348162651062,-0.0008026063442230225,0.013016760349273682,0.0008791685104370117,0.8525545385197864,0.11817434436834115,0.15284217660007912,0.4856181549266972
1714155312560668000,3.52166796875,-0.03640427440404892,0.031044883653521538,-0.02345682866871357,0.14622372388839722,-0.3498174846172333,-0.9253358244895935,0.00019960105419158936,0.002695322036743164,-0.0045500993728637695,0.8525914547864712,0.11803286287750812,0.15297168540312248,0.48554690250321353
1714155312570657000,3.531656982421875,-0.04615724831819534,0.021449249237775803,-0.008827618323266506,0.1465698629617691,-0.34949955344200134,-0.9254012107849121,0.0053465962409973145,-0.0067015886306762695,0.0004134178161621094,0.8526250618019655,0.11780879881200065,0.15303754885141288,0.4855215996845632
1714155312580647000,3.54164697265625,-0.0559891052544117,0.007407199591398239,-0.0063021425157785416,0.1467476338148117,-0.34907785058021545,-0.9255321621894836,0.0083732008934021,-0.011960327625274658,0.0028789639472961426,0.8526538297964954,0.1175731383301073,0.1530047895045882,0.48553862157743255
1714155312590636000,3.551635986328125,-0.04271841421723366,0.025182735174894333,-0.0042294044978916645,0.14694784581661224,-0.3486395478248596,-0.9256656169891357,0.005640015006065369,-0.0005730688571929932,0.003821134567260742,0.8526838118839015,0.11732467349125972,0.15297751347315605,0.4855545026207987
1714155312600626000,3.5616259765625,-0.02637033350765705,0.028988124802708626,-0.008269419893622398,0.14726375043392181,-0.34834998846054077,-0.9257243871688843,0.0035083144903182983,0.01019999384880066,0.007725119590759277,0.8526939605244046,0.11711412723196997,0.15304273913993952,0.48556689099461564
1714155312610615000,3.571614990234375,-0.0146222785115242,0.024283917620778084,-0.002497417852282524,0.1475512981414795,-0.34818559885025024,-0.9257404804229736,0.002122148871421814,0.005519002676010132,0.005345523357391357,0.852699222189655,0.1169688718457803,0.15312756373285205,0.48556597031714793
1714155312620605000,3.58160498046875,-0.014749044552445412,0.01334152091294527,0.0009737464133650064,0.14773772656917572,-0.34796640276908875,-0.9257931709289551,0.002332434058189392,-0.0010478198528289795,0.003338336944580078,0.852708093149418,0.11682233553228782,0.15315341681215322,0.4855774816702502
1714155312630595000,3.591594970703125,-0.011431917548179626,0.01620175503194332,-0.006558804772794247,0.14786763489246368,-0.3477522134780884,-0.92585289478302,0.002095729112625122,-0.0023606717586517334,0.0008193254470825195,0.8527189452249181,0.11669217879593903,0.15315512446175727,0.4855892017314307
1714155312640584000,3.601583984375,-0.0068100010976195335,0.0320156067609787,-0.015112079679965973,0.14812058210372925,-0.3476288616657257,-0.9258587956428528,-0.0022771060466766357,-0.0011259615421295166,0.001954317092895508,0.8527384129631852,0.11657933216585226,0.15323143257056773,0.4855580696076181
1714155312650574000,3.611573974609375,-0.0004740213043987751,0.029721293598413467,-0.009360317140817642,0.1484900563955307,-0.34764906764030457,-0.9257919788360596,-0.004248753190040588,-0.006278485059738159,0.00400853157043457,0.8527360623942035,0.11650108207950716,0.15339980108893106,0.4855277825958428
1714155312660563000,3.62156298828125,-0.009472575969994068,0.016063271090388298,-0.004666762426495552,0.14875462651252747,-0.3477073609828949,-0.9257276654243469,0.00046105682849884033,-0.017038702964782715,0.0072553157806396484,0.8527257838522553,0.11646337966663313,0.15353326225257785,0.4855127802587438
1714155312670553000,3.631552978515625,-0.011297480203211308,0.0022808804642409086,-0.01996755413711071,0.14889292418956757,-0.3475964665412903,-0.9257470369338989,0.006304189562797546,-0.015287995338439941,0.007015347480773926,0.8527480615927441,0.11638452639399814,0.1535614569054136,0.48548352136305484
1714155312680542000,3.6415419921875,0.010297027416527271,0.013684003613889217,-0.04121797904372215,0.14909528195858002,-0.34748557209968567,-0.9257560968399048,0.006193399429321289,-0.007082879543304443,0.004796624183654785,0.8528195865116837,0.1163061445605364,0.15360608490318167,0.48536246145473827
1714155312690532000,3.651531982421875,0.027888856828212738,0.02046015113592148,-0.04025458171963692,0.14940576255321503,-0.34757760167121887,-0.9256715178489685,-0.0000985264778137207,-0.00789111852645874,0.0029419660568237305,0.8528977332007106,0.11630188745013854,0.15374693739920617,0.48518159268311123
1714155312700521000,3.66152099609375,0.03369374945759773,0.013920226134359837,-0.031937532126903534,0.14969506859779358,-0.34784114360809326,-0.9255257844924927,-0.004721343517303467,-0.012525618076324463,0.0008889436721801758,0.852951846441143,0.11637754237234754,0.15392657392196835,0.4850113099356821
1714155312710510800,3.6715107421875,0.02999589592218399,0.01312527246773243,-0.024694597348570824,0.1499127745628357,-0.3481234312057495,-0.9253843426704407,-0.004923790693283081,-0.014913618564605713,0.0005338788032531738,0.8529880612919796,0.11647349533755852,0.15408355802428772,0.48487469357133545
1714155312720500000,3.6815,0.02307407557964325,0.006602391600608826,-0.022663138806819916,0.15005965530872345,-0.3483545184135437,-0.925273597240448,-0.0005693286657333374,-0.013309210538864136,0.001094520092010498,0.8530171051502629,0.11655928569696668,0.15419837785356283,0.48476643310679374
1714155312730489900,3.69148974609375,0.013383950106799603,-0.006765611469745636,-0.026688972488045692,0.15010887384414673,-0.34854376316070557,-0.9251943826675415,0.0036539286375045776,-0.008771270513534546,0.0029531121253967285,0.8530647182073221,0.11665381708906855,0.15425533638101357,0.48464210632658916
1714155312740479000,3.70147900390625,0.0989886000752449,0.1152801364660263,-0.04485945403575897,0.15064740180969238,-0.34933480620384216,-0.9248083829879761,0.0055415332317352295,-0.0024565458297729492,0.007648348808288574,0.8530526288153844,0.1169039155934382,0.1546908936797641,0.4844642637335457
1714155312750468900,3.71146875,-0.017658067867159843,0.0872354507446289,-0.02796289697289467,0.15165852010250092,-0.3497474491596222,-0.9244871139526367,-0.00796651840209961,-0.01730269193649292,0.01930522918701172,0.8530538639012955,0.11686527322592072,0.15523834899256672,0.4842962568858896
1714155312760458000,3.7214580078125,0.02508247084915638,0.02456195093691349,-0.00036455842200666666,0.15224489569664001,-0.3497522175312042,-0.9243889451026917,-0.023842215538024902,-0.05600947141647339,0.022350311279296875,0.8530281222314862,0.11672154896214493,0.15550438893131666,0.4842907663347871
1714155312770448000,3.73144775390625,0.02910187467932701,-0.014623800292611122,-0.060474369674921036,0.1523599922657013,-0.35008054971694946,-0.9242456555366516,-0.0010691285133361816,0.0010663270950317383,0.03366643190383911,0.8530594649623409,0.11686273908266118,0.15562861340053885,0.4841617056047637
1714155312780438000,3.74143798828125,0.03762159124016762,-0.018448898568749428,-0.09256332367658615,0.15242721140384674,-0.3503177762031555,-0.9241446852684021,0.012398213148117065,0.026266902685165405,0.0268973708152771,0.8532442756063321,0.11702073604295217,0.15567209431901177,0.48378363976788996
1714155312790427000,3.751427001953125,0.003390437923371792,-0.020913654938340187,-0.07793551683425903,0.15249969065189362,-0.3505419194698334,-0.9240477681159973,0.01243254542350769,0.01069822907447815,0.03772568702697754,0.8534379255345463,0.11717411342117882,0.15571240600776406,0.4833919714268605
1714155312800417000,3.7614169921875,-0.037655532360076904,-0.03952542319893837,-0.057729847729206085,0.15243329107761383,-0.35033664107322693,-0.9241365194320679,0.0023976266384124756,0.004770874977111816,0.03456437587738037,0.8536216808106758,0.11714991235068384,0.15558802106473688,0.4831131381154443
1714155312810406000,3.771406005859375,-0.04978266358375549,-0.03736906126141548,-0.06143510341644287,0.15226025879383087,-0.3499145209789276,-0.9243249893188477,-0.005302876234054565,0.0001983642578125,0.026894569396972656,0.8538136882299873,0.11704866295939656,0.15536126310927922,0.4828713510621144
1714155312820396000,3.78139599609375,-0.09790864586830139,-0.008010106161236763,-0.07685587555170059,0.15231356024742126,-0.34917595982551575,-0.9245954155921936,-0.0015567392110824585,-0.0023254454135894775,0.015202105045318604,0.8540377426462628,0.11675213619091845,0.15514902216296833,0.4826150690830323
1714155312830385000,3.791385009765625,-0.19260448217391968,-0.009724649600684643,-0.06482071429491043,0.15249063074588776,-0.34792041778564453,-0.9250394701957703,-0.00803568959236145,-0.010600060224533081,0.011282086372375488,0.8542813967244764,0.11618379244252869,0.15485993835082362,0.48241369383022437
1714155312840375000,3.801375,-0.23973603546619415,-0.046656567603349686,-0.0385558158159256,0.15226544439792633,-0.34626132249832153,-0.9256988167762756,-0.008802339434623718,-0.02466452121734619,0.006814539432525635,0.8545105087812137,0.11551066753454321,0.15429799538417815,0.48234967501507653
1714155312850364000,3.811364013671875,-0.18509642779827118,-0.10607542097568512,-0.035988595336675644,0.15152017772197723,-0.34431734681129456,-0.9265458583831787,0.005569025874137878,-0.02949240803718567,0.001634359359741211,0.8547876161188648,0.11483781837070581,0.15342538643328055,0.4822978299907371
