time,seconds_elapsed,rotationRateX,rotationRateY,rotationRateZ,gravityX,gravityY,gravityZ,accelerationX,accelerationY,accelerationZ,quaternionW,quaternionX,quaternionY,quaternionZ
1714155329667826000,0.045825927734375,0.0721781849861145,-0.09697646647691727,0.01804620772600174,-0.9155418276786804,0.08726798743009567,-0.39264193177223206,0.03321748971939087,-0.04700002074241638,0.012408256530761719,0.8344585783305691,-0.05229018360109605,-0.5485843393911621,0
1714155329677815000,0.05581494140625,0.08040367811918259,-0.08851160854101181,-0.0004776763962581754,-0.9159050583839417,0.08702849596738815,-0.39184701442718506,0.038768768310546875,-0.06867215037345886,0.004655301570892334,0.8342203163550214,-0.051983592647745575,-0.5489755882008437,0.00027046320767737386
1714155329687805000,0.065804931640625,0.09491071850061417,-0.0702657625079155,-0.008905249647796154,-0.9162097573280334,0.08664235472679138,-0.3912197947502136,0.016643047332763672,-0.05090627819299698,-0.01535061001777649,0.8340322092076167,-0.05160668748426758,-0.549296689669909,0.0005089037896464088
1714155329697794000,0.0757939453125,0.1034269705414772,-0.04534309729933739,-0.001142867375165224,-0.9164428114891052,0.08618763834238052,-0.3907738924026489,-0.0013275742530822754,-0.0064147040247917175,-0.02266290783882141,0.8338982890711408,-0.051172483149212744,-0.5495401949791995,0.0007664085838864354
1714155329707784000,0.085783935546875,0.11251208186149597,-0.018627597019076347,0.014867524616420269,-0.9165623784065247,0.08584138005971909,-0.3905695676803589,-0.005404174327850342,0.01967313140630722,-0.020624160766601562,0.8338366009242082,-0.05074571741448203,-0.5496727103976463,0.0011043901941972245
1714155329717773000,0.09577294921875,0.1143442839384079,0.0019972538575530052,0.03066859394311905,-0.916581928730011,0.0856100469827652,-0.3905744254589081,-0.0025007128715515137,0.018729545176029205,-0.019612282514572144,0.8338374196188467,-0.050331650249715226,-0.5497085642942401,0.0015219160981062574
1714155329727768600,0.1057685546875,0.11668093502521515,0.024579795077443123,0.03784368187189102,-0.9165022373199463,0.08546854555606842,-0.3907921612262726,-0.0027937889099121094,0.013194762170314789,-0.022965192794799805,0.833904009065249,-0.05124603219192492,-0.5495250313061748,0
1714155329737757700,0.1157578125,0.12117774039506912,0.04123227298259735,0.0360005721449852,-0.9163437485694885,0.08534431457519531,-0.3911910057067871,-0.006355106830596924,0.017209991812705994,-0.02572500705718994,0.8340234923500223,-0.050858881857278826,-0.5493795390008543,0.00046353415781230645
1714155329747747600,0.12574755859375,0.12730807065963745,0.05204257741570473,0.03942380100488663,-0.9161241054534912,0.08517948538064957,-0.39174070954322815,-0.007963240146636963,0.02631647139787674,-0.024961620569229126,0.8341877798438068,-0.05043330395641482,-0.5491685715406034,0.0009448786817043975
1714155329757737700,0.13573779296875,0.14549048244953156,0.04293030500411987,0.037876635789871216,-0.9159013628959656,0.08496300876140594,-0.3923085629940033,-0.008964240550994873,0.028760716319084167,-0.023661434650421143,0.8343573255627388,-0.049953965989732646,-0.5489538446730842,0.0014610485272597562
1714155329767726600,0.1457265625,0.16151925921440125,0.03811504319310188,0.03995949402451515,-0.9157065153121948,0.08453335613012314,-0.3928559124469757,-0.0042458176612854,0.021683067083358765,-0.023266613483428955,0.8345202711837642,-0.04934652637016479,-0.5487594800465111,0.001979010065568887
1714155329777716700,0.155716796875,0.17228294909000397,0.02329295501112938,0.03481493145227432,-0.91554194688797,0.08417859673500061,-0.3933151662349701,0.0015558600425720215,0.013050399720668793,-0.023081988096237183,0.8346561227059532,-0.04873612038141159,-0.5486047842371475,0.0025726998164845027
1714155329787705600,0.16570556640625,0.17451627552509308,0.012196894735097885,0.03270144760608673,-0.9154102802276611,0.08391072601079941,-0.3936787545681,0.006932616233825684,0.009824007749557495,-0.018217146396636963,0.8347628434540931,-0.04814920191590952,-0.5484909084030758,0.0032128105546898045
1714155329797695700,0.17569580078125,0.17024894058704376,0.00942640844732523,0.029805859550833702,-0.9153124094009399,0.08360123634338379,-0.3939719498157501,0.007017850875854492,0.007341146469116211,-0.012644350528717041,0.8348479573131914,-0.0475459455384904,-0.5484098968347703,0.0038419838029934428
1714155329807684600,0.1856845703125,0.16311965882778168,-0.0021311782766133547,0.03539690375328064,-0.9152411818504333,0.08331236988306046,-0.3941987454891205,0.008731842041015625,0.003052353858947754,-0.00816035270690918,0.8349128757339846,-0.04696546826869419,-0.5483565159980749,0.004457156297261178
1714155329817674800,0.1956748046875,0.14746618270874023,-0.02292087860405445,0.031946174800395966,-0.9152263402938843,0.0831180289387703,-0.3942740261554718,0.010273456573486328,0.001324087381362915,-0.006437122821807861,0.8349319698069724,-0.04645498265444176,-0.5483656758262867,0.005055501584573685
1714155329827663600,0.20566357421875,0.13194634020328522,-0.03459937125444412,0.02842334657907486,-0.9152628183364868,0.08309489488601685,-0.39419418573379517,0.014567136764526367,-0.0010636597871780396,-0.0031295418739318848,0.8349042644919489,-0.0460560422901464,-0.5484357279805679,0.005643437456402223
1714155329837653800,0.21565380859375,0.1147368848323822,-0.039795998483896255,0.02619561180472374,-0.9153072834014893,0.08326408267021179,-0.39405539631843567,0.014916718006134033,-0.002407759428024292,-0.0006132721900939941,0.8348586721599096,-0.04578051627593979,-0.5485220507463064,0.006219950313708866
1714155329847642600,0.225642578125,0.10306105017662048,-0.05019750818610191,0.027794040739536285,-0.9153855443000793,0.08335565775632858,-0.3938542604446411,0.011058151721954346,0.0010712072253227234,-0.002508223056793213,0.8347945986654529,-0.04551033638515742,-0.5486362038206694,0.006718562679521978
1714155329857632500,0.235632568359375,0.09376225620508194,-0.05692678317427635,0.028537197038531303,-0.915493905544281,0.08340685814619064,-0.3935912251472473,0.007382452487945557,0.008191637694835663,-0.005319327116012573,0.8347119928878499,-0.04524994216726022,-0.5487775757452439,0.0071663973853094975
1714155329867622700,0.24562255859375,0.086819127202034,-0.06463263928890228,0.027776598930358887,-0.9156439900398254,0.0834290087223053,-0.3932373523712158,0.00878375768661499,0.013326935470104218,-0.006909221410751343,0.8346023906604736,-0.04499592407420991,-0.5489596468467602,0.007579426671605272
1714155329877611500,0.255611572265625,0.0942850336432457,-0.06613226979970932,0.03140515834093094,-0.9158205986022949,0.08343799412250519,-0.3928240239620209,0.008090615272521973,0.015164285898208618,-0.004484415054321289,0.8344747352169535,-0.044734197623643224,-0.5491692248075959,0.007992870198196111
1714155329887601700,0.2656015625,0.11953925341367722,-0.07011289894580841,0.03331810235977173,-0.9160219430923462,0.08336827158927917,-0.3923690617084503,0.007788360118865967,0.01624108850955963,-0.0030930638313293457,0.8343338401553212,-0.04439387195043809,-0.5494039125414757,0.008454303157265641
1714155329897590500,0.275590576171875,0.15276005864143372,-0.07232838124036789,0.031813349574804306,-0.9162330627441406,0.08315233141183853,-0.3919214606285095,0.005771934986114502,0.016319692134857178,-0.0057228803634643555,0.834194125815935,-0.04392157673093547,-0.549645490610188,0.008982236827292822
1714155329907580700,0.28558056640625,0.18086066842079163,-0.06118331477046013,0.03346531093120575,-0.9164414405822754,0.0827837884426117,-0.391512393951416,0.002150118350982666,0.017344355583190918,-0.010358452796936035,0.8340649436066981,-0.04330868535795168,-0.5498801350201078,0.00958324681536038
1714155329917569500,0.295569580078125,0.1992134153842926,-0.05029764026403427,0.03707262501120567,-0.916600227355957,0.08234919607639313,-0.3912321925163269,-0.0017499327659606934,0.02272281050682068,-0.014254987239837646,0.83397288356302,-0.042603707086863896,-0.5500625681403525,0.010261124333248994
1714155329927559700,0.3055595703125,0.21186156570911407,-0.04327115789055824,0.04097149521112442,-0.9167143702507019,0.08193982392549515,-0.3910505473613739,-0.00514531135559082,0.02873215079307556,-0.012071490287780762,0.8339088995773399,-0.04186844197374817,-0.5502015618803185,0.011005868704816346
1714155329937548500,0.315548583984375,0.21346239745616913,-0.037688639014959335,0.05183552950620651,-0.9167929291725159,0.08164762705564499,-0.3909274637699127,-0.00718766450881958,0.025789499282836914,-0.009783685207366943,0.8338607527066774,-0.041151740526645525,-0.550311552860949,0.011827833417442146
1714155329947538700,0.32553857421875,0.2067565619945526,-0.03230053186416626,0.06047296151518822,-0.9168325066566467,0.08152879774570465,-0.3908592760562897,-0.0035469532012939453,0.01846202462911606,-0.007730931043624878,0.8338273944002481,-0.04050401159448605,-0.5503905773838079,0.01270196887954006
1714155329957527600,0.335527587890625,0.18795762956142426,-0.027752652764320374,0.06207125633955002,-0.9168464541435242,0.08154817670583725,-0.3908225893974304,-0.001045823097229004,0.013498805463314056,-0.0053108930587768555,0.8338026489921064,-0.03993948982716786,-0.5504484964838922,0.013575179770384638
1714155329967517700,0.345517578125,0.1721126139163971,-0.02574036829173565,0.06459460407495499,-0.9168570041656494,0.08165530115365982,-0.3907753527164459,-0.0019508004188537598,0.00953122228384018,-0.0019096434116363525,0.8337745349139747,-0.03945726977503927,-0.5505047222949031,0.014403480124709545
1714155329977506600,0.355506591796875,0.15228010714054108,-0.029210466891527176,0.06938489526510239,-0.9168640971183777,0.08184964954853058,-0.3907182514667511,-0.0038205981254577637,0.0057815611362457275,0.0018479228019714355,0.833743557395434,-0.0390556634620505,-0.550559284840332,0.015188946205436982
1714155329987496700,0.36549658203125,0.14074541628360748,-0.0352017804980278,0.06631560623645782,-0.9168807864189148,0.0821084976196289,-0.3906247019767761,-0.0024001002311706543,-0.000016219913959503174,0.00729331374168396,0.8337014674995672,-0.038716247024677686,-0.5506257357630091,0.01593906125385547
1714155329997486800,0.37548681640625,0.14480924606323242,-0.04209909960627556,0.05850508436560631,-0.916914701461792,0.08238334208726883,-0.39048704504966736,0.0005940794944763184,0.00048711150884628296,0.012740403413772583,0.833645610795329,-0.03839117290839941,-0.5507109855956106,0.016682144106153485
1714155330007475700,0.385475830078125,0.13977481424808502,-0.05434351786971092,0.04923541843891144,-0.9170051217079163,0.0826473981142044,-0.39021915197372437,0.0017219781875610352,0.0030612051486968994,0.015264809131622314,0.8335508419719064,-0.03808084059058675,-0.5508541339458869,0.017393686372862316
1714155330017465900,0.3954658203125,0.12822158634662628,-0.057181645184755325,0.04115039482712746,-0.9171410202980042,0.08281616866588593,-0.3898635506629944,0.0038721561431884766,0.006310395896434784,0.017381221055984497,0.8334305577219495,-0.0377627568184635,-0.5510373792925727,0.018030447225172108
1714155330027454700,0.405454833984375,0.11946937441825867,-0.054778944700956345,0.035609155893325806,-0.9172886610031128,0.08289887011051178,-0.3894987106323242,0.004157006740570068,0.008836954832077026,0.017840325832366943,0.8333088037836648,-0.03744008272639737,-0.55122488836023,0.018595465966025293
1714155330037444900,0.41544482421875,0.1045231819152832,-0.05630813166499138,0.03855987265706062,-0.9174500107765198,0.0829266607761383,-0.38911256194114685,-0.0015104413032531738,0.007115446031093597,0.0156688392162323,0.833181520248222,-0.03712461941192394,-0.551421332087611,0.019099338398005428
1714155330047433700,0.425433837890625,0.08102691173553467,-0.0674808919429779,0.03367510065436363,-0.9176469445228577,0.08298934996128082,-0.38863447308540344,-0.002106964588165283,0.0013154447078704834,0.012123703956604004,0.83302780326823,-0.036872037061714075,-0.5516549842860468,0.019539828061232722
1714155330057424000,0.435423828125,0.06451195478439331,-0.07092249393463135,0.03454755246639252,-0.9178857207298279,0.08307208865880966,-0.38805246353149414,0.001687169075012207,-0.0010866224765777588,0.01035153865814209,0.8328442337348314,-0.03667378232646351,-0.5519318776734156,0.019916402765728758
1714155330067412700,0.445412841796875,0.052203092724084854,-0.06676876544952393,0.02926969900727272,-0.9181395769119263,0.08313563466072083,-0.3874376714229584,0.0028718113899230957,-0.0012264922261238098,0.010576009750366211,0.8326522317906864,-0.036511050337662165,-0.5522210685113957,0.020221631764782366
1714155330077403000,0.45540283203125,0.03648862987756729,-0.06278067827224731,0.029615510255098343,-0.9183883666992188,0.08325713872909546,-0.38682153820991516,0.0008012056350708008,-0.002568669617176056,0.006999701261520386,0.8324607592478817,-0.036409530258292105,-0.5525066280928841,0.02048675015790813
1714155330087391500,0.4653916015625,0.021844707429409027,-0.05692944675683975,0.02231685258448124,-0.9186252951622009,0.08341348171234131,-0.3862251043319702,-0.0031581521034240723,-0.004159323871135712,0.005090892314910889,0.8322765991664423,-0.03636641438060878,-0.552779281404405,0.0206951073680679
1714155330097382000,0.4753818359375,0.010264908894896507,-0.05217517167329788,0.028014685958623886,-0.9188286662101746,0.08366984874010086,-0.3856852352619171,-0.005655407905578613,-0.0004026666283607483,0.002521693706512451,0.8321098154499555,-0.03640245931385555,-0.5530210206654314,0.02087458133553366
1714155330107370500,0.48537060546875,-0.0008607120253145695,-0.049243297427892685,0.017580952495336533,-0.919022262096405,0.0839541107416153,-0.38516196608543396,-0.006179094314575195,0.00048801302909851074,0.002990245819091797,0.8319491398837077,-0.0364819616537399,-0.5532522715846743,0.02101377811808869
1714155330117361000,0.49536083984375,-0.005430696997791529,-0.04621261730790138,0.018771318718791008,-0.9192081093788147,0.08419926464557648,-0.3846646249294281,-0.005581200122833252,-0.002351142466068268,0.0014553368091583252,0.83179746194421,-0.036572672174469856,-0.5534709810808017,0.02110061101689481
1714155330127350800,0.505350830078125,0.001608570571988821,-0.046583063900470734,0.011681717820465565,-0.9193918704986572,0.08435986191034317,-0.38419005274772644,-0.005870461463928223,-0.0030152499675750732,-0.00027054548263549805,0.8316532101085853,-0.03662779104465089,-0.5536816543007483,0.021164347250927473
1714155330137340000,0.51533984375,0.004017719067633152,-0.04192386567592621,0.00771054532378912,-0.9195659160614014,0.08441250026226044,-0.38376182317733765,-0.007329165935516357,-0.005234658718109131,-0.0003630518913269043,0.8315234196748875,-0.03663170782885769,-0.5538747209267807,0.021207191607879983
1714155330147329800,0.525329833984375,0.005567945074290037,-0.02948290854692459,-0.0013250275515019894,-0.9197217226028442,0.08439955860376358,-0.3833911418914795,-0.007051348686218262,-0.004260413348674774,-0.000916898250579834,0.8314112296354104,-0.03660445435479989,-0.5540438156891736,0.021237357166920767
1714155330157319000,0.53531884765625,-0.006535962224006653,-0.015191586688160896,0.0013299442362040281,-0.9198150634765625,0.0843694880604744,-0.38317325711250305,-0.008666753768920898,0.0013848766684532166,-0.0012872815132141113,0.831345564207811,-0.03658775583374432,-0.5541432165057629,0.02123580005271497
1714155330167308800,0.545308837890625,-0.027684655040502548,-0.004816177301108837,0.0022604528348892927,-0.9198634028434753,0.0844019427895546,-0.3830503225326538,-0.011227846145629883,0.0037938356399536133,0.0005429387092590332,0.8313101559717341,-0.03664642864407164,-0.5541948003325481,0.021177430921404172
1714155330177298000,0.5552978515625,-0.05706789717078209,0.004289702977985144,0.002378231380134821,-0.91986483335495,0.08456584811210632,-0.38301074504852295,-0.011989295482635498,-0.001420736312866211,0.0013730525970458984,0.8313011730792516,-0.03682125760237967,-0.5542010735373967,0.021063421328587018
1714155330187287800,0.565287841796875,-0.09218860417604446,0.018682757392525673,-0.008367357775568962,-0.9198256731033325,0.0848153829574585,-0.3830494284629822,-0.012409865856170654,-0.005668051540851593,0.0007708966732025146,0.8313184444860606,-0.03712198551877277,-0.5541635487068952,0.02083770989173117
1714155330197277000,0.57527685546875,-0.11545392125844955,0.03176846355199814,-0.02462262660264969,-0.9197474122047424,0.08505978435277939,-0.3831833004951477,-0.015585720539093018,-0.00716371089220047,-0.000178605318069458,0.8313676931571388,-0.03750970038841839,-0.5540770500026436,0.0204764662265135
1714155330207266800,0.585266845703125,-0.12438058108091354,0.03613018989562988,-0.045419249683618546,-0.9196526408195496,0.08516310155391693,-0.3833877742290497,-0.01629084348678589,-0.008106231689453125,-0.0011643767356872559,0.8314413984794747,-0.03790449133921828,-0.5539579075442518,0.01997658809314745
1714155330217256000,0.595255859375,-0.12051818519830704,0.03248272463679314,-0.060084812343120575,-0.9195788502693176,0.08506432920694351,-0.3835863769054413,-0.01650184392929077,-0.010433591902256012,-0.001789689064025879,0.8315149650466984,-0.03823788494481942,-0.5538453567688782,0.019385899632938353
1714155330227245800,0.605245849609375,-0.11405868828296661,0.02528473362326622,-0.08111020177602768,-0.9195394515991211,0.08481466770172119,-0.3837365210056305,-0.01298612356185913,-0.006415039300918579,-0.0009529590606689453,0.8315749184482157,-0.03851197847343521,-0.5537585775011852,0.018747768813267895
1714155330237235000,0.61523486328125,-0.111915223300457,0.02118746004998684,-0.11127396672964096,-0.9195364713668823,0.0843723714351654,-0.3838408887386322,-0.009494781494140625,0.00121413916349411,-0.0008332431316375732,0.8316219771248592,-0.038720918076010996,-0.55369688354001,0.01803336400434341
1714155330247224800,0.625224853515625,-0.11508012562990189,0.02870343253016472,-0.11748073250055313,-0.9195496439933777,0.08378873765468597,-0.38393720984458923,-0.007360577583312988,0.009274594485759735,-0.0031783580780029297,0.8316676471583759,-0.03889371640290973,-0.5536412920505458,0.017245324552294605
1714155330257214700,0.635214599609375,-0.12350961565971375,0.028918616473674774,-0.11824824661016464,-0.9195510745048523,0.08314850926399231,-0.38407304883003235,-0.008747756481170654,0.01144072413444519,-0.008291542530059814,0.8317253158699396,-0.039059721212791276,-0.5535682606802264,0.016415851307942597
1714155330267203800,0.645203857421875,-0.1342908889055252,0.012084242887794971,-0.11355389654636383,-0.9195794463157654,0.08252865076065063,-0.38413846492767334,-0.005347073078155518,0.01087035983800888,-0.012895286083221436,0.8317612079627166,-0.03925205937001677,-0.553525102541943,0.015565661391039598
1714155330277193700,0.65519384765625,-0.13895483314990997,0.008964882232248783,-0.10697868466377258,-0.9196478128433228,0.08197091519832611,-0.38409435749053955,-0.0003044009208679199,0.005553476512432098,-0.015365511178970337,0.8317635882107887,-0.03948738533408627,-0.5535282854871924,0.014707987001514489
1714155330287182800,0.665182861328125,-0.13150809705257416,-0.0016683212015777826,-0.11197983473539352,-0.9197421669960022,0.08141089230775833,-0.3839874267578125,0.0040166378021240234,0.004068814218044281,-0.020401090383529663,0.8317461399572194,-0.03972000401111858,-0.5535599365936299,0.013853036786101447
1714155330297172700,0.6751728515625,-0.10023870319128036,-0.0008075872901827097,-0.1041862964630127,-0.9198489189147949,0.08077359199523926,-0.3838662803173065,0.007449805736541748,0.011023245751857758,-0.024092763662338257,0.8317226689104673,-0.03987058611061148,-0.5536038240677118,0.01305180086040586
1714155330307161900,0.685161865234375,-0.055470697581768036,-0.001522646052762866,-0.08741424232721329,-0.919946551322937,0.0801422968506813,-0.3837648928165436,0.006357133388519287,0.018917739391326904,-0.030572354793548584,0.8317019041139514,-0.0399094462543344,-0.5536468036661233,0.012423778232201255
1714155330317151700,0.69515185546875,-0.019494371488690376,0.017205234616994858,-0.090004101395607,-0.9199885129928589,0.07955808937549591,-0.3837858736515045,0.0076198577880859375,0.025147706270217896,-0.028964459896087646,0.8317146908544003,-0.03985188718972943,-0.5536414764624854,0.01198184415801623
1714155330327140900,0.705140869140625,0.029175428673624992,0.009237323887646198,-0.06204516813158989,-0.9199838638305664,0.07894469797611237,-0.3839236795902252,0.013138830661773682,0.02939268946647644,-0.026339471340179443,0.8317601805596866,-0.03967281173743359,-0.5535921173343514,0.011694679215212889
1714155330337130800,0.715130859375,0.06767696142196655,0.013514626771211624,-0.011127257719635963,-0.9199692010879517,0.0786781832575798,-0.3840135633945465,0.01565706729888916,0.0363272950053215,-0.026005297899246216,0.8317863560956092,-0.039468362361906845,-0.553566130957364,0.011759832425018935
1714155330347119900,0.725119873046875,0.0957445502281189,0.04073586314916611,-0.00725688599050045,-0.9198389649391174,0.07839897274971008,-0.38438230752944946,0.015801608562469482,0.04408332705497742,-0.026262342929840088,0.8318940482205176,-0.039155901698835704,-0.5534217811086408,0.011972652359688363
1714155330357109800,0.73510986328125,0.11127637326717377,0.06846895068883896,0.011255678720772266,-0.9195857644081116,0.07805977016687393,-0.38505664467811584,0.013457894325256348,0.044315703213214874,-0.026030540466308594,0.8320925884714321,-0.03875815723364731,-0.5531450870576148,0.012256298166939017
1714155330367099600,0.745099609375,0.12337937951087952,0.04626484960317612,0.05764048546552658,-0.9192882180213928,0.07796406000852585,-0.38578590750694275,0.007865548133850098,0.032418012619018555,-0.024080514907836914,0.8323046371826641,-0.03838382591008646,-0.5528415023695783,0.012725153562495983
1714155330377088800,0.7550888671875,0.14181244373321533,0.01553676463663578,0.11684075742959976,-0.9190558195114136,0.07848655432462692,-0.38623321056365967,0.0118599534034729,0.026036135852336884,-0.019162386655807495,0.8324263855557181,-0.03816745840081562,-0.552654178243231,0.013519623811012904
1714155330387078700,0.76507861328125,0.1712542176246643,0.03881039470434189,0.10848349332809448,-0.9187865257263184,0.07912728935480118,-0.38674280047416687,0.010781943798065186,0.025776855647563934,-0.016608059406280518,0.8325632285081996,-0.03791225347719446,-0.5524411854179564,0.014479909397693336
1714155330397067800,0.77506787109375,0.18454979360103607,0.06310214847326279,0.12289745360612869,-0.9184244871139526,0.07975587993860245,-0.3874727487564087,0.0002422928810119629,0.018190287053585052,-0.015878111124038696,0.8327637153209102,-0.03759896586444414,-0.5521321760910838,0.015516005670828337
1714155330407057700,0.7850576171875,0.17281563580036163,0.022417575120925903,0.15693052113056183,-0.9180468916893005,0.08064068108797073,-0.38818415999412537,-0.014326035976409912,0.013521283864974976,-0.013442516326904297,0.8329550202632632,-0.037360746303979675,-0.5518261472773356,0.016672856656573587
1714155330417046800,0.795046875,0.1415615677833557,-0.030886661261320114,0.19795052707195282,-0.9178507328033447,0.08200664818286896,-0.3883619010448456,-0.024043679237365723,0.01578691601753235,-0.006428897380828857,0.8329821612550843,-0.0373452620535166,-0.5517466696688418,0.01793465799477828
1714155330427036700,0.80503662109375,0.06573152542114258,-0.08679839968681335,0.24675002694129944,-0.9177924990653992,0.08406630158424377,-0.3880589008331299,-0.04010838270187378,0.0013371109962463379,-0.020296871662139893,0.8328607410919328,-0.0376817586588932,-0.5518610586017036,0.019297415762000336
1714155330437025800,0.81502587890625,-0.07249511033296585,-0.11655309796333313,0.2459673285484314,-0.9179148077964783,0.08662045747041702,-0.3872070908546448,-0.07163280248641968,-0.012737423181533813,-0.057952940464019775,0.8325783203952929,-0.038476369017346634,-0.5521920104808548,0.020419776010003
1714155330447015700,0.825015625,-0.25255516171455383,0.003731770673766732,0.3928864598274231,-0.9178985357284546,0.09008990228176117,-0.3864532709121704,-0.12333059310913086,-0.016359448432922363,-0.09807443618774414,0.8323307324242798,-0.04000479811854435,-0.5524246364531151,0.021265753943164434
1714155330457004800,0.8350048828125,-0.4592803716659546,0.09425634145736694,0.5208298563957214,-0.9171887636184692,0.09563542902469635,-0.38680553436279297,-0.1844956874847412,-0.024605780839920044,-0.11757385730743408,0.8324121213743997,-0.042723168225498515,-0.5520615556037849,0.022197583596907433
1714155330466994700,0.84499462890625,-0.8379920125007629,-0.046767089515924454,0.5654873251914978,-0.9165292382240295,0.10323885083198547,-0.3864139914512634,-0.2356160283088684,-0.044416241347789764,-0.15289273858070374,0.8322796850755316,-0.04693869822653288,-0.5518965196821028,0.022745747432695584
1714155330476983800,0.85498388671875,-1.1253578662872314,-0.08013516664505005,0.6091018319129944,-0.916263997554779,0.11232278496026993,-0.38450464606285095,-0.29905271530151367,-0.09190653264522552,-0.1768052577972412,0.8317153032109036,-0.0526491672234512,-0.5522460841041495,0.02240355260209692
1714155330486973700,0.8649736328125,-1.107316017150879,0.7646805047988892,1.0673421621322632,-0.9139901995658875,0.12422075122594833,-0.38625267148017883,-0.3535725474357605,-0.12545672059059143,-0.1154564619064331,0.8322342409575153,-0.059649403924126265,-0.5507409696385863,0.022638769861919927
1714155330496963800,0.8749638671875,-1.3594070672988892,0.7376739382743835,0.8622885942459106,-0.9094283580780029,0.13808853924274445,-0.39226484298706055,-0.3690902590751648,-0.09577594697475433,-0.083321213722229,0.8340203195451225,-0.06750494160465864,-0.5470929185649245,0.02329362912214722
1714155330506952000,0.884951904296875,-1.4914298057556152,0.30785197019577026,0.901488184928894,-0.9063295722007751,0.1515955626964569,-0.3944433629512787,-0.3804745674133301,-0.011443600058555603,-0.09966689348220825,0.8346908160263449,-0.07602243989338625,-0.5449760674492629,0.02264787767664639
1714155330516942000,0.894942138671875,-1.5035202503204346,0.5246700644493103,1.129184603691101,-0.9030988216400146,0.16665154695510864,-0.39577749371528625,-0.5161974430084229,0.012150928378105164,-0.06744897365570068,0.8350889825190249,-0.08502113767769509,-0.543030993320634,0.022697705385432143
1714155330526930700,0.9049306640625,-1.563283085823059,0.631096601486206,1.212045669555664,-0.8987176418304443,0.1833948791027069,-0.39833760261535645,-0.6108952760696411,0.06498764455318451,-0.13034901022911072,0.8358414293440247,-0.09471742167467138,-0.5402405072061304,0.0231909504210987
1714155330536921000,0.914921142578125,-1.5601316690444946,0.6820839047431946,1.27885901927948,-0.893696665763855,0.20069800317287445,-0.40128111839294434,-0.6429243683815002,0.14918601512908936,-0.21380072832107544,0.8367030771399891,-0.10463060425098604,-0.5370399168317042,0.02384227432382452
1714155330546909700,0.92490966796875,-1.6381456851959229,0.7458351850509644,1.5093783140182495,-0.8878588080406189,0.21946360170841217,-0.4044036269187927,-0.691990315914154,0.14587754011154175,-0.22969070076942444,0.8376025024462808,-0.11510189575199736,-0.5334320430022997,0.02497443316523268
1714155330556900000,0.934900146484375,-1.6171506643295288,0.74981290102005,1.7416386604309082,-0.8811167478561401,0.24051378667354584,-0.4071683883666992,-0.680452287197113,0.07250496745109558,-0.25617700815200806,0.838364727831268,-0.1263924589248739,-0.5295665678989041,0.026991727408479993
1714155330566888700,0.944888671875,-1.3906017541885376,0.9759011268615723,2.0676279067993164,-0.8728981614112854,0.2632516920566559,-0.4107886254787445,-0.652248203754425,0.04605919122695923,-0.22188663482666016,0.8393278120975514,-0.13781937494101154,-0.5249871523572074,0.030382099297364296
1714155330576879000,0.954879150390625,-1.296636700630188,1.3048540353775024,2.3534488677978516,-0.8620367646217346,0.28801608085632324,-0.41706031560897827,-0.6564110517501831,0.03322717547416687,-0.19327610731124878,0.8409973197547504,-0.14939362466983533,-0.51879802855239,0.03540568312331127
1714155330586867700,0.96486767578125,-1.1777561902999878,1.4350665807724,2.550347328186035,-0.8488431572914124,0.31417930126190186,-0.42515456676483154,-0.6722595691680908,0.08836272358894348,-0.20594903826713562,0.8431244564072531,-0.16117971396751762,-0.511315764216386,0.04145207337284096
1714155330596858000,0.974858154296875,-1.0764728784561157,1.4789246320724487,2.7417047023773193,-0.8339654803276062,0.34126144647598267,-0.43363815546035767,-0.6992070078849792,0.17578253149986267,-0.1925216019153595,0.8452594283392019,-0.1729725310050223,-0.5032508621606128,0.04853258635916591
1714155330606846700,0.9848466796875,-0.9302007555961609,1.562084436416626,2.9598066806793213,-0.8172072768211365,0.3691633939743042,-0.4425952136516571,-0.700920045375824,0.16967016458511353,-0.18855413794517517,0.8473974520068742,-0.1847306730178016,-0.49454724174424924,0.056701149007510776
1714155330616837000,0.994837158203125,-0.7285200953483582,1.6413716077804565,3.245023012161255,-0.7981947660446167,0.397879958152771,-0.4523013234138489,-0.682273805141449,0.19005638360977173,-0.2170865833759308,0.8495633156374295,-0.1963242579586559,-0.48508362924587906,0.06627742802342584
1714155330626827000,1.004826904296875,-0.5180894136428833,1.6999824047088623,3.528402090072632,-0.7765648365020752,0.4273624122142792,-0.4629344642162323,-0.6822515726089478,0.26360127329826355,-0.2661915719509125,0.8517401042198582,-0.2076783215339711,-0.47476572038830006,0.07749770577275916
1714155330636816100,1.014816162109375,-0.30758342146873474,1.7520831823349,3.7134838104248047,-0.7524590492248535,0.45704519748687744,-0.4742518961429596,-0.7101414799690247,0.3715069591999054,-0.3519047796726227,0.8538157350307024,-0.2186934068075548,-0.4637318684591313,0.09013554552789121
1714155330646806000,1.024805908203125,0.06765943765640259,1.9789764881134033,3.870210886001587,-0.7257701754570007,0.48556235432624817,-0.48732611536979675,-0.7762743830680847,0.48707857728004456,-0.45824581384658813,0.8560687427433186,-0.2287448637014355,-0.4516776779138994,0.10396762646586483
1714155330656795100,1.034795166015625,0.3248412311077118,2.4020450115203857,4.032403945922852,-0.6951923370361328,0.5125918388366699,-0.5039416551589966,-0.8591746091842651,0.5547451376914978,-0.5033368468284607,0.8589846061215564,-0.23784922130450314,-0.43755789014943214,0.11881191529001278
1714155330666785000,1.044784912109375,0.3803226053714752,2.6779866218566895,4.089827060699463,-0.6607773303985596,0.5382946729660034,-0.5230793952941895,-0.8855787515640259,0.553685188293457,-0.4653850197792053,0.8623171710997739,-0.24664163308241754,-0.4214596229300837,0.1339725695567454
1714155330676774100,1.054774169921875,0.31384456157684326,2.7933573722839355,4.173940658569336,-0.6234386563301086,0.5629141330718994,-0.5426342487335205,-0.8232928514480591,0.5511299967765808,-0.40626412630081177,0.8655010320082878,-0.2555757536658319,-0.40418300265276,0.14908095564083051
1714155330686764000,1.064763916015625,0.21809804439544678,2.8728082180023193,4.275655746459961,-0.5835924744606018,0.5869290828704834,-0.5611900091171265,-0.6933087706565857,0.4731905460357666,-0.34238988161087036,0.868119133655846,-0.264986187459125,-0.38624775192721617,0.16420794935407113
1714155330696753200,1.074753173828125,0.06719759851694107,2.987529993057251,4.4086198806762695,-0.5409095883369446,0.6104576587677002,-0.5785828232765198,-0.5689077973365784,0.33088749647140503,-0.2858428955078125,0.8701187126922774,-0.2750131623550788,-0.3675273308023825,0.1794008734876663
1714155330706743000,1.084742919921875,-0.2085636705160141,3.0186803340911865,4.50709342956543,-0.495542973279953,0.6340230107307434,-0.5936765074729919,-0.48036327958106995,0.21613556146621704,-0.22985559701919556,0.8712198323340322,-0.2861377931361677,-0.34826270142731847,0.1944583380276737
1714155330716732000,1.09473193359375,-0.507993757724762,2.998670816421509,4.5752482414245605,-0.44824373722076416,0.6575399041175842,-0.6055729985237122,-0.3863508701324463,0.15254908800125122,-0.18780773878097534,0.8712128217688375,-0.29838201286328103,-0.3289098260104495,0.20922367965743838
1714155330726722000,1.10472216796875,-0.8676992058753967,2.986128091812134,4.690827369689941,-0.39903220534324646,0.6813018918037415,-0.6136782169342041,-0.2856447994709015,0.0974913239479065,-0.12661725282669067,0.8699336222316221,-0.3119659649420923,-0.3095773566196828,0.22372842166748919
1714155330736711000,1.1147109375,-1.1489546298980713,2.8294498920440674,4.789189338684082,-0.34819868206977844,0.7053651809692383,-0.6174280643463135,-0.1863471269607544,-0.028866946697235107,-0.024387121200561523,0.8671933644783192,-0.32692866930670883,-0.2905229765101379,0.23809555348119144
1714155330746701000,1.124701171875,-1.1306238174438477,2.5392253398895264,4.9175238609313965,-0.29690149426460266,0.7279855012893677,-0.6179696917533875,-0.09212127327919006,-0.17380166053771973,0.07577908039093018,0.8631211033044721,-0.34192540913439984,-0.27221713386184093,0.25299552744092774
1714155330756691000,1.13469091796875,-1.0190562009811401,2.3358964920043945,5.068872451782227,-0.24508312344551086,0.7482258677482605,-0.6165162324905396,0.005550682544708252,-0.3308370113372803,0.14111340045928955,0.8579124892391007,-0.3563454227872933,-0.25447948688564015,0.26878293185614505
1714155330766680000,1.14468017578125,-0.6442753672599792,2.210637092590332,5.2518415451049805,-0.19211769104003906,0.7646516561508179,-0.6151410937309265,0.10013777017593384,-0.4287753105163574,0.18264591693878174,0.8520399464158529,-0.3694009165402231,-0.23658490926332765,0.28565426761073304
1714155330776670000,1.154669921875,-0.362569123506546,2.041942834854126,5.318567276000977,-0.13826914131641388,0.7764659523963928,-0.6148024797439575,0.13163162767887115,-0.41341376304626465,0.21709734201431274,0.8457330408916666,-0.3806737208417882,-0.21837189523012623,0.3035401483876019
1714155330786659000,1.1646591796875,0.04103480651974678,1.895900011062622,5.447495460510254,-0.0842885971069336,0.7834411859512329,-0.6157234311103821,0.11128145456314087,-0.40445876121520996,0.22851628065109253,0.8390766466318548,-0.39004792757041185,-0.2000022776501406,0.3221987141814907
1714155330796649000,1.17464892578125,0.32563042640686035,1.7688664197921753,5.5375142097473145,-0.02973201870918274,0.785370409488678,-0.6183117032051086,0.07828551530838013,-0.41893070936203003,0.29906725883483887,0.8320728352748112,-0.3975276734786035,-0.18115161854290832,0.3417757829974164
1714155330806638000,1.18463818359375,0.7349013090133667,1.6459108591079712,5.519550323486328,0.024094954133033752,0.7823590636253357,-0.622361421585083,0.05868399143218994,-0.45200634002685547,0.35165512561798096,0.8248652938305566,-0.4031496150083602,-0.1621409573146455,0.3616323081986274
1714155330816628000,1.1946279296875,1.224387526512146,1.399572730064392,5.211124420166016,0.07581313699483871,0.7736303806304932,-0.62908536195755,0.042228877544403076,-0.4248756170272827,0.4162251949310303,0.8179112089016916,-0.40617014486769576,-0.14311927772544214,0.38152836007300317
1714155330826617000,1.2046171875,1.9687913656234741,1.312198519706726,4.456592559814453,0.12121494859457016,0.7587751746177673,-0.6399742960929871,0.007569253444671631,-0.3451858162879944,0.4898735284805298,0.8126314525135151,-0.4055140431777454,-0.12478470212476676,0.39952118160641836
1714155330836607000,1.21460693359375,2.7154738903045654,1.4261857271194458,4.0357208251953125,0.16157616674900055,0.7375946640968323,-0.6556272506713867,-0.04977501928806305,-0.1562349796295166,0.5263395309448242,0.8095565918733842,-0.4011887957062733,-0.10599020652807478,0.4152487649915232
1714155330846596000,1.22459619140625,3.07262921333313,1.6992825269699097,3.80708909034729,0.20035400986671448,0.7110235095024109,-0.6740205883979797,-0.13042299449443817,-0.19080573320388794,0.5601595044136047,0.8078500705691211,-0.39451929354129056,-0.08569841630597602,0.42940480137946724
1714155330856586000,1.2345859375,2.9471449851989746,1.765669584274292,3.3950088024139404,0.2375158816576004,0.6824759244918823,-0.6912400722503662,-0.21322385966777802,-0.5510673522949219,0.5996872186660767,0.8065621756363333,-0.3875051922647113,-0.06495924517889497,0.4416756507997495
1714155330866575000,1.2445751953125,2.556584358215332,1.521281361579895,2.9421803951263428,0.2701736092567444,0.6550869941711426,-0.7055970430374146,-0.2790847420692444,-1.0183531045913696,0.6357422471046448,0.8052805356794168,-0.380894553568932,-0.0460522934336903,0.452019638577921
1714155330876565000,1.25456494140625,1.9951115846633911,1.060725212097168,2.5179529190063477,0.29700759053230286,0.6311874985694885,-0.716511607170105,-0.23520949482917786,-1.4335252046585083,0.6891525983810425,0.8035936996604127,-0.37525508915094,-0.030459943625395947,0.46096968166961516
1714155330886555000,1.264554931640625,1.747635841369629,0.5467561483383179,2.198086738586426,0.3173336982727051,0.6107855439186096,-0.7254242300987244,-0.08732271194458008,-1.703406572341919,0.7640899419784546,0.8016595056744041,-0.3700556925420797,-0.018618877762005423,0.4690992728354195
1714155330896544000,1.2745439453125,1.9790480136871338,0.1816607564687729,1.8875349760055542,0.3323286175727844,0.5905618071556091,-0.7353872656822205,0.032859981060028076,-1.635209083557129,0.8279470205307007,0.8002054475375203,-0.36362738000878514,-0.009026928302328624,0.4768279666106858
1714155330906534000,1.284533935546875,2.4613542556762695,0.1288081854581833,1.2747719287872314,0.3424009680747986,0.5689076781272888,-0.7477336525917053,0.10097366571426392,-1.1916494369506836,0.8212199211120605,0.8003731032885626,-0.35515206827140927,-0.00041342883786400775,0.48298008998707764
1714155330916523000,1.29452294921875,2.8254430294036865,0.1535220593214035,1.15239679813385,0.34997060894966125,0.5447742938995361,-0.7620640397071838,0.08020517230033875,-0.5078633427619934,0.8028812408447266,0.8022202737341667,-0.3448083688670325,0.008670235502155177,0.48731377622241173
1714155330926513000,1.304512939453125,2.6853830814361572,0.09998799860477448,1.164967656135559,0.35732531547546387,0.519088625907898,-0.7764442563056946,0.03255200386047363,0.025115966796875,0.7820594310760498,0.8040783621805089,-0.33384245840668797,0.01808585497066617,0.4916097621692709
1714155330936502000,1.314501953125,1.9962866306304932,-0.10163753479719162,1.16476309299469,0.363163024187088,0.49652498960494995,-0.7884005904197693,0.09106060862541199,0.07607626914978027,0.7428683638572693,0.8051255112900624,-0.3242439911845214,0.025797857568446964,0.49595674997114636
1714155330946492000,1.324491943359375,1.162225365638733,-0.3012755513191223,1.373120903968811,0.36773625016212463,0.47937870025634766,-0.7968475818634033,0.12797603011131287,-0.10157120227813721,0.6851685047149658,0.8045346096006574,-0.3172036165321517,0.030952905915209494,0.5011463478926975
1714155330956481000,1.33448095703125,0.5034505724906921,-0.45858126878738403,1.526820421218872,0.37153124809265137,0.46752414107322693,-0.8021132349967957,0.15952035784721375,-0.2367503046989441,0.6446425318717957,0.8022021123492268,-0.3127388273014571,0.033731246511814986,0.5074724904144412
1714155330966471000,1.344470947265625,0.28417670726776123,-0.47198790311813354,1.6538902521133423,0.37509390711784363,0.45862945914268494,-0.8055827617645264,0.23589852452278137,-0.2455863356590271,0.5873362421989441,0.798797603626125,-0.3097832072055111,0.03525604276411698,0.5145033692207971
1714155330976460000,1.3544599609375,0.3057810664176941,-0.4325973391532898,1.7973928451538086,0.3792576789855957,0.44985413551330566,-0.8085758090019226,0.2881312370300293,-0.04668650031089783,0.49134552478790283,0.7948627027391381,-0.30717197533247514,0.036844023689892466,0.521997155021876
1714155330986450000,1.364449951171875,0.3937114477157593,-0.37192147970199585,1.9744021892547607,0.38440603017807007,0.43979501724243164,-0.8116725087165833,0.35407352447509766,0.2062772512435913,0.39236098527908325,0.7905180029083207,-0.30436376961857303,0.0390696083136665,0.5300164008268048
1714155330996439000,1.37443896484375,0.3988371193408966,-0.3152954876422882,2.072411060333252,0.39042380452156067,0.42867419123649597,-0.8147438764572144,0.46400731801986694,0.24873965978622437,0.33781516551971436,0.7857800181361756,-0.3014557266684481,0.04186285267646482,0.5384436253691386
1714155331006429000,1.384428955078125,0.31336134672164917,-0.28092366456985474,2.1736109256744385,0.39698469638824463,0.4173617959022522,-0.8174424767494202,0.5970185995101929,0.10815081000328064,0.31895309686660767,0.7806432101314352,-0.29877184744341556,0.04487910939527456,0.5470989800929537
1714155331016418800,1.394418701171875,0.19007308781147003,-0.24278800189495087,2.364058494567871,0.40411052107810974,0.40635189414024353,-0.819495439529419,0.7033265829086304,-0.023692071437835693,0.31322407722473145,0.7748462289747191,-0.2965808285897357,0.04787574413878736,0.5562022209942039
1714155331026408000,1.404407958984375,0.09537186473608017,-0.17039476335048676,2.7101330757141113,0.4125186502933502,0.3948620855808258,-0.8209216594696045,0.8295468091964722,-0.12562081217765808,0.2993761897087097,0.7680144683276299,-0.2948174876964471,0.051203819633997776,0.566228436058334
1714155331036397800,1.414397705078125,0.058005478233098984,-0.027172083035111427,2.952674150466919,0.4225345551967621,0.38243651390075684,-0.8217096924781799,1.015041708946228,-0.1789759397506714,0.30489450693130493,0.7600749270303215,-0.2934388970559984,0.055125077498763324,0.5771835088617672
1714155331046387000,1.424386962890625,0.0761336162686348,0.050774116069078445,3.4249677658081055,0.4344792366027832,0.36828505992889404,-0.8219451904296875,1.2270045280456543,-0.1194142997264862,0.3733367323875427,0.750940162030085,-0.29228110669813634,0.05999310965286537,0.5891190964817461
1714155331056376800,1.434376953125,-0.010776246897876263,0.3122946619987488,4.1449456214904785,0.44963547587394714,0.3512430787086487,-0.8212528228759766,1.437342643737793,0.015257686376571655,0.5051212310791016,0.7396336032700463,-0.2915061026353769,0.06631574297355149,0.6029663847986861
1714155331066366000,1.444365966796875,-0.07065849006175995,0.3913865387439728,4.657447338104248,0.4678339958190918,0.3314224183559418,-0.8193231821060181,1.7025303840637207,0.17962482571601868,0.6474786996841431,0.7259905377807233,-0.2913096934100462,0.07400719967785974,0.6185461107093864
1714155331076355800,1.45435595703125,-0.08872649073600769,0.10187271237373352,5.214862823486328,0.48563241958618164,0.30858340859413147,-0.8178859353065491,1.9353575706481934,0.30381274223327637,0.7886043190956116,0.7103686164377827,-0.2904487794572279,0.08183232395991116,0.6358611619278235
1714155331086345000,1.464344970703125,-0.24941764771938324,-0.20950807631015778,5.84938383102417,0.5015619993209839,0.2825734615325928,-0.8176721930503845,2.140359878540039,0.31993499398231506,0.9084466695785522,0.6922735008378256,-0.2884782023423962,0.08913040180290278,0.6554338727943047
1714155331096334800,1.4743349609375,-0.31424325704574585,-0.3729579746723175,6.178813457489014,0.5152607560157776,0.25435662269592285,-0.8184186816215515,2.2743053436279297,0.2893292009830475,1.0011273622512817,0.6719564602957411,-0.28568915226485875,0.09577253679524661,0.676523382709632
1714155331106324000,1.484323974609375,-0.3808947205543518,-0.3140363395214081,6.438013553619385,0.5274167656898499,0.22429025173187256,-0.8194665312767029,2.257861375808716,0.17050030827522278,1.0181665420532227,0.6499364135868917,-0.2824748893152089,0.10234583888077937,0.6980800976421584
1714155331116313900,1.49431396484375,-0.30160683393478394,-0.3438003659248352,6.502888202667236,0.5383449196815491,0.192718967795372,-0.8203926682472229,2.1370091438293457,-0.04283195734024048,0.9707832336425781,0.6266662031899631,-0.2790809510785531,0.10916729787793411,0.7193648208410338
1714155331126303000,1.504302978515625,-0.058854397386312485,-0.580893337726593,6.881221771240234,0.5462952852249146,0.15820631384849548,-0.8225157856941223,2.1443326473236084,-0.14395467936992645,0.915823221206665,0.6023475906626005,-0.2742702904567158,0.11626663081579217,0.7405640796144443
1714155331136292900,1.51429296875,0.6313964128494263,-1.0074329376220703,6.875882148742676,0.5495046973228455,0.11807326227426529,-0.8271053433418274,2.3160500526428223,-0.13720783591270447,0.8455379605293274,0.5771162893324534,-0.26643720795461523,0.12433232937314936,0.7618985664421568
1714155331146283000,1.524282958984375,1.4431935548782349,-1.1990444660186768,5.655139923095703,0.5452337861061096,0.07482221722602844,-0.834938108921051,2.5559470653533936,-0.10231861472129822,0.744667112827301,0.5549781056968182,-0.25460276953108696,0.13307278430267716,0.780684452209095
1714155331156271900,1.53427197265625,1.7825483083724976,1.4506865739822388,3.256769895553589,0.5478389859199524,0.03644279018044472,-0.8357896208763123,2.7030763626098633,-0.1786242425441742,0.6758164763450623,0.5392630950651967,-0.24702210358797472,0.14520765418719045,0.7918901387372559
1714155331166262000,1.544261962890625,1.6091235876083374,4.993977069854736,-0.025795748457312584,0.5740799307823181,0.013448541052639484,-0.8186888098716736,2.167008876800537,-0.3327234983444214,0.6543363928794861,0.5325645664455316,-0.2536296181006721,0.16225782255663682,0.7910242787864222
1714155331176251000,1.5542509765625,1.6030470132827759,6.7941155433654785,-3.1413636207580566,0.6259167194366455,0.012234769761562347,-0.779793918132782,0.9578692317008972,-0.4235049784183502,0.7320643663406372,0.5363472614989662,-0.2766020613177654,0.18328759084634572,0.7760338414089993
1714155331186241000,1.564240966796875,1.7624292373657227,1.7819318771362305,-5.188713073730469,0.6559539437294006,0.02844613790512085,-0.7542647123336792,0.2402099370956421,-0.5703010559082031,1.0498120784759521,0.5502549921245037,-0.29230132908274886,0.1934621080101833,0.7578600171763483
1714155331196230000,1.57422998046875,4.568183422088623,-6.78495979309082,-3.6322295665740967,0.6363446712493896,0.034101568162441254,-0.7706507444381714,0.6930315494537354,-0.6472913026809692,1.2650812864303589,0.574948826743106,-0.2787505598764095,0.19228297280089998,0.7448216587704846
1714155331206220000,1.584219970703125,5.183083534240723,-9.883845329284668,-3.9732327461242676,0.5664634704589844,0.016817180439829826,-0.8239152431488037,3.0174293518066406,-0.5992757081985474,1.7330033779144287,0.6025518859922068,-0.23565195794897947,0.18030679391316934,0.7408702593506424
1714155331216209000,1.594208984375,7.191164970397949,-11.791038513183594,-7.377830505371094,0.47369861602783203,-0.007680763024836779,-0.8806535005569458,4.1151533126831055,-0.07676143944263458,2.8875045776367188,0.6383080764967939,-0.18126353459451036,0.16375826863336046,0.7299928156726685
1714155331226198800,1.60419873046875,10.669635772705078,-12.074965476989746,-13.162128448486328,0.3661366105079651,-0.04411395266652107,-0.9295148849487305,1.2972391843795776,0.2591865062713623,2.224696159362793,0.6911587630227547,-0.11662778675744453,0.14710714873269531,0.6978946604762292
1714155331236188000,1.61418798828125,8.136387825012207,-13.006696701049805,-8.976754188537598,0.25580736994743347,-0.10488927364349365,-0.9610207080841064,-1.1322264671325684,-0.8239285349845886,0.7596810460090637,0.7454470264374871,-0.045150510498169066,0.1321025004470956,0.6517813926906659
1714155331246177800,1.624177734375,2.9413137435913086,-11.925897598266602,0.10573871433734894,0.14237254858016968,-0.1417616307735443,-0.979608952999115,-3.0998616218566895,-2.1990435123443604,-0.881841242313385,0.7652059156571354,0.009069394168443368,0.10056476820516563,0.6358177096357293
1714155331256167000,1.6341669921875,1.6852976083755493,-10.282596588134766,-4.263208389282227,0.03559264540672302,-0.16182824969291687,-0.9861768484115601,-5.581460475921631,-2.4105441570281982,-2.449903964996338,0.7739080745355769,0.05180530505767801,0.06502141323470774,0.6278174556200967
1714155331266156800,1.64415673828125,0.37161099910736084,-5.527626037597656,-8.680530548095703,-0.03515520691871643,-0.17528049647808075,-0.9838906526565552,-9.430939674377441,-2.6257448196411133,-2.4860494136810303,0.7975270813992679,0.0810344440468114,0.038575654990809255,0.5965701705235297
1714155331276146000,1.65414599609375,-0.7258163094520569,-0.28973713517189026,-5.839380741119385,-0.048259757459163666,-0.17559613287448883,-0.9832786917686462,-11.15597915649414,-0.5647603273391724,-1.4757513999938965,0.81960084213335,0.08632880222664524,0.030132899521593415,0.5655914023371205
1714155331286135800,1.6641357421875,-2.3405561447143555,3.0207693576812744,-4.218436241149902,-0.025065302848815918,-0.16289593279361725,-0.9863248467445374,-9.14391040802002,1.469444990158081,-0.014361798763275146,0.8337852396698259,0.07526583915007977,0.03424389902708785,0.5458613008906739
1714155331296126000,1.6741259765625,-3.6400039196014404,4.039708137512207,-2.055514097213745,0.016187680885195732,-0.13312827050685883,-0.9909666180610657,-5.811140060424805,1.3148908615112305,1.1328580379486084,0.8428803018668876,0.05201935123831186,0.042552109107523786,0.5338877523463947
1714155331306114800,1.68411474609375,-2.3142755031585693,4.392334461212158,1.2444310188293457,0.059118058532476425,-0.10229237377643585,-0.9929961562156677,-2.9927728176116943,1.1086704730987549,0.8334960341453552,0.8435553337288361,0.027463039068511906,0.05241864289609739,0.533771823000397
1714155331316105000,1.69410498046875,-2.2199642658233643,4.387149333953857,3.4950196743011475,0.10218435525894165,-0.08136968314647675,-0.9914319515228271,-0.8874931931495667,0.9960730075836182,0.03449225425720215,0.8357343966053763,0.006171723767269325,0.06516079660052146,0.545219262079242
1714155331326093800,1.70409375,1.2275269031524658,1.9766294956207275,4.714502334594727,0.13079716265201569,-0.07991631329059601,-0.9881829023361206,0.22300836443901062,1.883657693862915,0.2720574736595154,0.8231287987603947,-0.003927572038854556,0.07676662797838153,0.5626279809024375
1714155331336084000,1.714083984375,5.369261741638184,-2.8694875240325928,1.7731839418411255,0.1277775764465332,-0.1168891042470932,-0.9848907589912415,0.6672816276550293,2.6368017196655273,0.7561005353927612,0.8120322162278146,0.010668982164411579,0.08625999918146449,0.5771040354268461
1714155331346072800,1.72407275390625,7.428689956665039,0.28018465638160706,-1.8206470012664795,0.1145433560013771,-0.18821078538894653,-0.9754263162612915,0.399967759847641,1.3021023273468018,0.8007742762565613,0.8133007731246124,0.04436827585238848,0.10157899690325058,0.5711873513836023
1714155331356063000,1.73406298828125,1.8754743337631226,2.571748971939087,-0.9336677193641663,0.1322074681520462,-0.2297355979681015,-0.9642316699028015,-0.8020378351211548,-0.8583076596260071,0.6811354160308838,0.8150396910198316,0.05738135695607015,0.12079544976666803,0.5637606287372523
1714155331366051800,1.7440517578125,-2.5489726066589355,0.5714306235313416,-0.7871549725532532,0.15076075494289398,-0.22314515709877014,-0.9630562663078308,-1.6359292268753052,-3.0494532585144043,0.24189543724060059,0.8162927280852109,0.04967327444509205,0.12650856990862402,0.561421619623583
1714155331376042000,1.7540419921875,-2.6592769622802734,-0.6757604479789734,-1.4011664390563965,0.1515505164861679,-0.19453291594982147,-0.9691178202629089,-1.258484125137329,-3.457841396331787,1.0276505947113037,0.8199957401733302,0.038007975098713065,0.11830671145515798,0.5587179557645182
1714155331386030800,1.76403076171875,-2.0975232124328613,-0.8137606978416443,-1.736992597579956,0.1471671462059021,-0.16925878822803497,-0.9745221138000488,-0.3477439284324646,-2.453711748123169,1.3355603218078613,0.8253457168363088,0.029515732153689404,0.10893933781523195,0.553231830900947
1714155331396021000,1.77402099609375,-0.9411494731903076,-1.280246615409851,-1.4126415252685547,0.13998056948184967,-0.151276096701622,-0.9785299897193909,0.028598546981811523,-0.8483729958534241,0.35688698291778564,0.830448149354804,0.02476834470493902,0.10060578240216643,0.5473762878440112
1714155331406011000,1.784010986328125,0.5046769380569458,-1.1315429210662842,-0.3544107973575592,0.1284952461719513,-0.14843109250068665,-0.9805392026901245,-0.0385751873254776,0.14835473895072937,0.1399630904197693,0.8336634478261423,0.0272240625595598,0.09481158436336515,0.5433918186677618
1714155331416000000,1.794,1.1891753673553467,0.2644515037536621,1.1036325693130493,0.12329244613647461,-0.15743254125118256,-0.9798030257225037,0.10636759549379349,0.703636109828949,0.03610795736312866,0.8327068689277087,0.032306298586834856,0.09515666680598096,0.5445187853634044
1714155331425990000,1.803989990234375,2.0351755619049072,1.2963550090789795,1.9417927265167236,0.1291416883468628,-0.1750405877828598,-0.9760549068450928,0.2146541029214859,1.297248125076294,-0.23965859413146973,0.8276723691202996,0.03734275689643742,0.10284968558777047,0.5504414087377928
1714155331435979000,1.81397900390625,2.251716375350952,0.9529857039451599,1.8800311088562012,0.13704605400562286,-0.1994728446006775,-0.9702726006507874,0.15972213447093964,1.3322242498397827,-0.19894731044769287,0.8211859935356633,0.044360939029365366,0.11355965481586215,0.5574853281498078
1714155331445969000,1.823968994140625,-0.25111353397369385,0.14737415313720703,0.8318365812301636,0.13855235278606415,-0.2115568071603775,-0.9674952030181885,-0.014086410403251648,0.4624570608139038,-0.05334830284118652,0.8166653436007946,0.04817614298787317,0.11803161567698223,0.5628544412932128
1714155331455958000,1.8339580078125,-0.8930726051330566,0.6596260070800781,0.3120206296443939,0.14204135537147522,-0.20588235557079315,-0.9682131409645081,-0.20748630166053772,-0.39976954460144043,-0.013033807277679443,0.8150590339927009,0.0444477060989703,0.11797385154325261,0.5654954482787156
1714155331465948000,1.843947998046875,-1.4448561668395996,0.973302960395813,-0.14288641512393951,0.1499437838792801,-0.19494502246379852,-0.9692849516868591,-0.2768511176109314,-1.17831552028656,0.13914579153060913,0.8145247266044267,0.03747996529333177,0.11812189921213698,0.5667378348197316
1714155331475936800,1.853936767578125,-0.9730658531188965,0.2956475019454956,-0.5037473440170288,0.1573951691389084,-0.18150345981121063,-0.9707127809524536,-0.1339118927717209,-1.310073733329773,0.028772473335266113,0.8153384144866398,0.029872432758791066,0.1172657634492015,0.5661975742372239
1714155331485927000,1.863927001953125,0.3203529119491577,-0.39360520243644714,-0.333111971616745,0.15719667077064514,-0.17799659073352814,-0.9713940620422363,-0.06591859459877014,-0.5061007142066956,0.009464740753173828,0.8167209646460265,0.028728668071789955,0.11609320963231523,0.5645032400042406
1714155331495915800,1.873915771484375,0.47512319684028625,-0.3855757713317871,0.06076810136437416,0.15356554090976715,-0.18228457868099213,-0.9711796641349792,-0.057633548974990845,-0.012448117136955261,-0.008663415908813477,0.817243611755615,0.03166301711525864,0.1157912601600234,0.5636512778101254
1714155331505906400,1.883906494140625,0.07360611855983734,-0.20567499101161957,0.217511385679245,0.15032976865768433,-0.18528346717357635,-0.9711184501647949,0.017135456204414368,0.12369894981384277,-0.10393953323364258,0.8169400380091025,0.03377265528615655,0.11532647728321459,0.5640638528932904
1714155331515895300,1.893895263671875,-0.27084824442863464,0.055219464004039764,0.16018058359622955,0.14924246072769165,-0.1844896823167801,-0.9714372158050537,0.02418893575668335,0.11391773819923401,-0.04800248146057129,0.8164322547535083,0.033635524415543336,0.11467366293750393,0.5649397948599693
1714155331525885400,1.903885498046875,-0.336868554353714,0.2868649363517761,0.06943336129188538,0.15073418617248535,-0.18156099319458008,-0.9717586040496826,-0.0028917789459228516,-0.016101405024528503,0.025317013263702393,0.8160910727254991,0.03191004162594815,0.1144658964952037,0.5655745289926478
1714155331535875300,1.913875244140625,-0.2907734513282776,0.41896384954452515,0.18986064195632935,0.15404435992240906,-0.178635373711586,-0.9717817306518555,-0.04759904742240906,-0.04678274691104889,-0.050541818141937256,0.8156040519814012,0.029649547914373048,0.11502189995725937,0.5662869092716011
1714155331545864400,1.923864501953125,-0.2860617935657501,0.4116681218147278,0.3118307590484619,0.15763729810714722,-0.17631544172763824,-0.9716292023658752,-0.09449642896652222,0.05455026030540466,-0.11929786205291748,0.8146773070806576,0.02747615253698076,0.1158898134781358,0.5675522422120358
1714155331555854300,1.933854248046875,-0.36316540837287903,0.43301069736480713,0.2913248836994171,0.1611635684967041,-0.17365702986717224,-0.971529483795166,-0.0555422306060791,0.06969884037971497,-0.11497259140014648,0.8136001566754092,0.025146479777532805,0.11663151815351765,0.5690514420665459
1714155331565843500,1.943843505859375,-0.39143964648246765,0.4439839720726013,0.19646494090557098,0.16505512595176697,-0.17034971714019775,-0.9714616537094116,-0.01754842698574066,-0.009414106607437134,-0.0772443413734436,0.8126915938659263,0.022474596316433865,0.11732032359274024,0.5703184584720253
1714155331575833300,1.953833251953125,-0.3286339044570923,0.3784499764442444,0.13246731460094452,0.16881902515888214,-0.16706575453281403,-0.9713851809501648,-0.041667550802230835,-0.08304108679294586,-0.03958582878112793,0.8120328299209992,0.01989953759981073,0.11794668350028195,0.571222517276773
1714155331585822500,1.963822509765625,-0.19828574359416962,0.3069893717765808,0.12138564139604568,0.1719176471233368,-0.16470080614089966,-0.9712455868721008,-0.05732414126396179,-0.12279008328914642,-0.02008742094039917,0.8115017490930968,0.01792399368854168,0.11855776596334905,0.5719157327124925
1714155331595812400,1.973812255859375,-0.04592699185013771,0.2974190413951874,0.13127028942108154,0.17461994290351868,-0.16371649503707886,-0.9709298610687256,-0.04153279960155487,-0.11716733872890472,-0.001909494400024414,0.8109761209035566,0.016639983352028275,0.11940764276990233,0.5725230018005414
1714155331605801200,1.98380126953125,0.09974686056375504,0.2633953094482422,0.19719791412353516,0.17708325386047363,-0.16432707011699677,-0.970380425453186,-0.029423952102661133,-0.05805458128452301,0.019651055335998535,0.8103521603143256,0.01607032387428136,0.12062976550475926,0.5731662457455964
1714155331615791400,1.993791259765625,0.09962328523397446,0.19365642964839935,0.23749200999736786,0.1789269745349884,-0.16578605771064758,-0.9697938561439514,-0.012789279222488403,0.007903322577476501,0.014273226261138916,0.8095525434811436,0.01599221748651617,0.12184959451467982,0.5740395457618146
1714155331625780200,2.0037802734375,-0.002026377711445093,0.1796593815088272,0.10640189796686172,0.1803646981716156,-0.1666088104248047,-0.9693864583969116,0.0039004385471343994,-0.004137083888053894,0.04258286952972412,0.8089211143503307,0.01579600453191602,0.1227080505099745,0.5747518972990913
1714155331635770400,2.013770263671875,-0.10603613406419754,0.2193964123725891,-0.05046507716178894,0.18226858973503113,-0.16607540845870972,-0.9691218137741089,-0.020906910300254822,-0.09048591554164886,0.07408708333969116,0.8087340016887019,0.014993786212903037,0.12334615271863743,0.5749001037039722
1714155331645759200,2.02375927734375,-0.11682912707328796,0.20339295268058777,-0.11842095106840134,0.1845068633556366,-0.16475842893123627,-0.968923032283783,-0.06518316268920898,-0.15526419878005981,0.055684566497802734,0.808871999315038,0.013838657623993614,0.1238828825594054,0.5746194055066114
1714155331655749400,2.033749267578125,-0.06851640343666077,0.18149083852767944,-0.06683898717164993,0.18649710714817047,-0.16364632546901703,-0.9687304496765137,-0.07858695089817047,-0.15135616064071655,0.030620098114013672,0.8090472583262536,0.012848081429544043,0.12437723617304794,0.5742888593927195
1714155331665738200,2.04373828125,0.00674213282763958,0.21237312257289886,0.04146511107683182,0.18838323652744293,-0.16327141225337982,-0.9684287309646606,-0.06957831978797913,-0.07256847620010376,0.020323872566223145,0.808969600192631,0.012141344118377105,0.12505289676882095,0.574266830973548
1714155331675728400,2.053728271484375,0.1583922803401947,0.24487541615962982,0.16226842999458313,0.19046302139759064,-0.16421464085578918,-0.9678622484207153,-0.07153603434562683,0.02717539668083191,0.025860965251922607,0.8085267101068029,0.01185221362251724,0.12620772294263416,0.5746438024026125
1714155331685718500,2.063718505859375,0.29389524459838867,0.25171229243278503,0.2506971061229706,0.19248104095458984,-0.16687634587287903,-0.9670073986053467,-0.07018186151981354,0.09006355702877045,0.010952770709991455,0.8077607374347648,0.0122279411782283,0.1278545066739983,0.5753486727235563
1714155331695707400,2.073707275390625,0.30363884568214417,0.29465973377227783,0.32257747650146484,0.19463035464286804,-0.17037229239940643,-0.9659669995307922,-0.05998679995536804,0.11403679847717285,0.00010097026824951172,0.8067443362473844,0.01285736388316315,0.12981207593474212,0.5763218763473081
1714155331705697500,2.083697509765625,0.24837611615657806,0.30684930086135864,0.3779906630516052,0.19693967700004578,-0.17373809218406677,-0.9648988842964172,-0.053476542234420776,0.11659388244152069,0.020410358905792236,0.8055132271993974,0.013334042021853044,0.13180578453383884,0.5775793525881041
1714155331715686400,2.093686279296875,0.1793726533651352,0.31152206659317017,0.40242311358451843,0.19922548532485962,-0.1765739470720291,-0.9639143347740173,-0.06296449899673462,0.10580362379550934,0.044953763484954834,0.8041641953527574,0.013563063257086429,0.1336371092214582,0.5790310880959425
1714155331725676500,2.103676513671875,0.12844662368297577,0.3194465935230255,0.4086884558200836,0.20154957473278046,-0.17884616553783417,-0.9630118608474731,-0.08208851516246796,0.07743619382381439,0.06318581104278564,0.8027592454987784,0.013526636633506076,0.13531853197510846,0.580588974127551
1714155331735665400,2.11366552734375,0.09850379824638367,0.3284512758255005,0.42011773586273193,0.20391309261322021,-0.18078356981277466,-0.9621521234512329,-0.10706557333469391,0.05148056149482727,0.054788291454315186,0.8013278202388301,0.01332718778697184,0.13691718706924377,0.582193828503478
1714155331745655600,2.123655517578125,0.0292538870126009,0.31924524903297424,0.4257282316684723,0.20626287162303925,-0.18226203322410583,-0.9613720178604126,-0.11274176836013794,0.02630189061164856,0.027518868446350098,0.7998756273169589,0.012929567420002064,0.1383720204069873,0.5838533876725378
1714155331755644400,2.13364453125,-0.05247245356440544,0.30614781379699707,0.4144054651260376,0.20850469172000885,-0.18302516639232635,-0.960743248462677,-0.09890082478523254,0.00046896934509277344,0.021137535572052002,0.7984310287816863,0.012261242720618327,0.1395637530751395,0.585559127141934
1714155331765634600,2.143634521484375,-0.09932811558246613,0.3125663101673126,0.4290491044521332,0.21069574356079102,-0.1831524521112442,-0.9602408409118652,-0.0934930145740509,-0.006178632378578186,0.04886394739151001,0.7969852575070016,0.011338275788327357,0.14053832398741084,0.58731158380339
1714155331775623400,2.15362353515625,-0.06458462029695511,0.3223302662372589,0.48531970381736755,0.21291379630565643,-0.18326997756958008,-0.959729015827179,-0.10324890911579132,0.018764957785606384,0.06098639965057373,0.7954285337837022,0.01037345121151851,0.14151987620984566,0.5892010010825037
1714155331785613600,2.163613525390625,0.0736725851893425,0.3035541772842407,0.5426264405250549,0.21499522030353546,-0.1843637079000473,-0.9590553045272827,-0.11805616319179535,0.052390411496162415,0.05686420202255249,0.7936846067583674,0.00980466063938805,0.14274530166707322,0.5912632294388078
1714155331795602400,2.1736025390625,0.20791086554527283,0.27909037470817566,0.6003419160842896,0.21668647229671478,-0.18697722256183624,-0.9581682682037354,-0.11751963198184967,0.06360988318920135,0.04888182878494263,0.791787345195244,0.009937036389095273,0.14428135989578206,0.5934279602947856
1714155331805592600,2.183592529296875,0.21646681427955627,0.26722145080566406,0.6950486898422241,0.21819904446601868,-0.19058682024478912,-0.9571132659912109,-0.11498861014842987,0.06801293790340424,0.05087858438491821,0.7896368644567376,0.010465288155978282,0.14606106554190407,0.5958441731998884
1714155331815582500,2.19358251953125,0.15856073796749115,0.18467678129673004,0.8072780966758728,0.21875879168510437,-0.19404937326908112,-0.9562894105911255,-0.11811183393001556,0.06505152583122253,0.05167210102081299,0.7872128110347194,0.011137128146050973,0.1474152641435487,0.598699194383978
1714155331825571600,2.203571533203125,0.0661192238330841,0.21353720128536224,0.8105857372283936,0.21901971101760864,-0.1969105452299118,-0.9556446075439453,-0.10692866146564484,0.023601174354553223,0.05752754211425781,0.7846139276960281,0.011599962045256491,0.14846932476038435,0.6018332726879931
1714155331835561500,2.2135615234375,-0.026770606637001038,0.2743243873119354,0.7244873642921448,0.21984443068504333,-0.19879329204559326,-0.9550652503967285,-0.09484444558620453,-0.03315560519695282,0.07704406976699829,0.7821134943874609,0.011512814575429624,0.14944841099683276,0.6048395978110701
1714155331845550600,2.223550537109375,-0.20579388737678528,0.2576037347316742,0.6892356276512146,0.22102101147174835,-0.19930261373519897,-0.9546874761581421,-0.10595449805259705,-0.08119972050189972,0.09114688634872437,0.7797917276904881,0.010797459174486879,0.15013219878256898,0.607674711749745
1714155331855540500,2.23354052734375,-0.4420362412929535,0.20997574925422668,0.7611362338066101,0.22181108593940735,-0.19780053198337555,-0.9548166394233704,-0.12238484621047974,-0.10653606057167053,0.10636693239212036,0.7774391495205675,0.009366709113079547,0.15001317810118658,0.6107344767465256
1714155331865529600,2.243529541015625,-0.6037356853485107,0.23950114846229553,0.8513782620429993,0.22227682173252106,-0.19453012943267822,-0.9553800225257874,-0.12553611397743225,-0.09816400706768036,0.10316145420074463,0.7748165594148326,0.0072534559288405034,0.1491890155677884,0.6142876346642625
1714155331875519500,2.25351953125,-0.6136759519577026,0.35282742977142334,0.8865411281585693,0.22342050075531006,-0.19059059023857117,-0.9559071660041809,-0.12930430471897125,-0.08808071911334991,0.06241351366043091,0.7719363608238716,0.0046137134224648185,0.14840868464976156,0.618116151830313
1714155331885508600,2.263508544921875,-0.6171936988830566,0.455023854970932,0.9278150796890259,0.22559194266796112,-0.18676765263080597,-0.9561517238616943,-0.14929801225662231,-0.1106262058019638,-0.028955698013305664,0.7688436541815995,0.001668601179736183,0.14805862651024393,0.6220571764480143
1714155331895498500,2.27349853515625,-0.6222599744796753,0.47573286294937134,1.0306928157806396,0.22829581797122955,-0.18297167122364044,-0.9562438726425171,-0.18111565709114075,-0.12916216254234314,-0.09049379825592041,0.7654573608858869,-0.0014899330310620337,0.1479048156321503,0.6262562480447639
1714155331905487600,2.283487548828125,-0.47993403673171997,0.40902572870254517,1.2283835411071777,0.23048457503318787,-0.18026122450828552,-0.9562336206436157,-0.20773375034332275,-0.08338019251823425,-0.05881154537200928,0.7615785765547511,-0.004163240979139983,0.14787106425572455,0.6309635121480199
1714155331915477500,2.2934775390625,-0.31700998544692993,0.35311639308929443,1.4599080085754395,0.23167824745178223,-0.17953619360923767,-0.9560815691947937,-0.22118021547794342,-0.016051024198532104,0.0303155779838562,0.7570374271553697,-0.005885064423200498,0.14806955008594921,0.6363449501332423
1714155331925467400,2.30346728515625,-0.04217150807380676,0.37004902958869934,1.6744434833526611,0.23221831023693085,-0.18135401606559753,-0.9556072950363159,-0.23844392597675323,0.03300802409648895,0.0947369933128357,0.7517544952969744,-0.0065666038933350004,0.14883957116491242,0.6423928969223818
1714155331935456500,2.31345654296875,0.3567768931388855,0.5043969750404358,1.8055479526519775,0.23308876156806946,-0.18685828149318695,-0.9543341398239136,-0.28571635484695435,0.11366181075572968,0.08729922771453857,0.7458053484218234,-0.006072683048895612,0.1509836628137938,0.6487998508808158
1714155331945446400,2.3234462890625,0.8184776306152344,0.7206416726112366,1.8054722547531128,0.2354097068309784,-0.19670380651950836,-0.9517824649810791,-0.3321504592895508,0.19655117392539978,0.0561678409576416,0.7394544121687153,-0.004484642580359868,0.1552051868515289,0.6550560385324831
1714155331955435500,2.333435546875,1.1374975442886353,0.9161408543586731,1.762513518333435,0.23955951631069183,-0.21036867797374725,-0.9478165507316589,-0.379696249961853,0.23917721211910248,0.01838850975036621,0.7329641506360536,-0.0021105644157666872,0.16151550257418457,0.6608115535786461
1714155331965425400,2.34342529296875,1.1941945552825928,1.046515703201294,1.811835765838623,0.24498318135738373,-0.22583088278770447,-0.9428592920303345,-0.4345889389514923,0.2183082550764084,-0.027950644493103027,0.7262524395170928,0.00039745961180587264,0.16902721770951035,0.6663233916185588
1714155331975414500,2.35341455078125,1.0572917461395264,1.199093222618103,1.9118839502334595,0.2511013150215149,-0.24112029373645782,-0.9374482035636902,-0.4618099331855774,0.16269008815288544,-0.041982948780059814,0.7190480110435106,0.0023827484137897495,0.17683388550995127,0.6720817887321433
1714155331985404400,2.363404296875,0.8134624361991882,1.3543927669525146,2.046586751937866,0.258140504360199,-0.2549471855163574,-0.9318612813949585,-0.46065518260002136,0.11746546626091003,-0.047005295753479004,0.7111985387181725,0.0032168135038871948,0.18455086485652483,0.678326828625059
1714155331995393500,2.3733935546875,0.49111083149909973,1.4546993970870972,2.123365640640259,0.26576751470565796,-0.26646408438682556,-0.9264796376228333,-0.46933504939079285,0.07626324892044067,-0.05780380964279175,0.7027518735126508,0.0026874854203928905,0.19171059926108694,0.6851129248245518
1714155332005383400,2.383383544921875,0.18870863318443298,1.4495846033096313,2.164120674133301,0.2733822166919708,-0.275348424911499,-0.9216536283493042,-0.4878292679786682,0.03219956159591675,-0.0641251802444458,0.6939403236561861,0.0009439853561388767,0.19791993257407203,0.6922958300454592
1714155332015372500,2.39337255859375,0.005088416393846273,1.3416823148727417,2.1766116619110107,0.2802266478538513,-0.28215962648391724,-0.9175287485122681,-0.5136556625366211,0.008355885744094849,-0.08222711086273193,0.6849856480713777,-0.001457638401924241,0.20306036110218745,0.6996849451036484
1714155332025362400,2.403362548828125,-0.048248838633298874,1.1575673818588257,2.201622724533081,0.285425066947937,-0.2880604863166809,-0.9140862822532654,-0.527856707572937,0.025609254837036133,-0.07953554391860962,0.6760334773043573,-0.0037050925671240076,0.207227275236308,0.7071222010140135
1714155332035351600,2.4133515625,-0.047280192375183105,1.0607388019561768,2.3108155727386475,0.2889194190502167,-0.2940121293067932,-0.9110885858535767,-0.5178470611572266,0.07240870594978333,-0.07066190242767334,0.6668976288373398,-0.005449147203949539,0.21077480288384914,0.7146968670710689
1714155332045341400,2.423341552734375,0.09094691276550293,1.0790916681289673,2.4633419513702393,0.29149624705314636,-0.30104270577430725,-0.9079664945602417,-0.48448947072029114,0.13336390256881714,-0.026908934116363525,0.6571966364215797,-0.00669601031727364,0.2144106077550187,0.7225479950900111
1714155332055331600,2.43333154296875,0.32127898931503296,1.1203856468200684,2.574758768081665,0.2937559187412262,-0.3102397620677948,-0.9041342735290527,-0.4443144202232361,0.1932353377342224,0.042928218841552734,0.6468632415869966,-0.007303570590096106,0.21881391635552347,0.730503290523487
1714155332065320400,2.443320556640625,0.5328479409217834,1.1332271099090576,2.6389036178588867,0.295690655708313,-0.3217941224575043,-0.8994529247283936,-0.4083615839481354,0.24368435144424438,0.07944560050964355,0.6360702152027842,-0.007178706957691877,0.2241026490347381,0.7383367317817021
1714155332075310600,2.453310546875,0.6330530047416687,1.1032763719558716,2.6657233238220215,0.29702794551849365,-0.3349342346191406,-0.8941999077796936,-0.3718876242637634,0.24972909688949585,0.0729871392250061,0.6249855175984622,-0.006466688699384576,0.22990919923103517,0.7459845166367336
1714155332085299500,2.463299560546875,0.6219844222068787,1.054883360862732,2.6535022258758545,0.2975549101829529,-0.34847211837768555,-0.8888353109359741,-0.32889655232429504,0.20281168818473816,0.051234662532806396,0.6137788453027664,-0.005457947942789532,0.23569587102248193,0.7534541261427828
1714155332095289300,2.473289306640625,0.5215247273445129,1.00004243850708,2.6065995693206787,0.2972964644432068,-0.36135774850845337,-0.8837620615959167,-0.27565956115722656,0.14669707417488098,0.04761093854904175,0.6026137058430797,-0.0044637255653290075,0.24103743877918746,0.7607481264228165
1714155332105278500,2.483278564453125,0.45585036277770996,0.9138814210891724,2.5709571838378906,0.2962123453617096,-0.3732546269893646,-0.8791696429252625,-0.21694296598434448,0.11667802929878235,0.06496065855026245,0.5915955767556261,-0.00352920146963262,0.24576967964120114,0.7678537442045429
1714155332115268400,2.493268310546875,0.4855304956436157,0.8284746408462524,2.5992517471313477,0.2940344214439392,-0.3849426209926605,-0.8748502135276794,-0.1593451201915741,0.10776668787002563,0.07767003774642944,0.58057878619063,-0.0023125010472438007,0.2501390405336431,0.7748246962015876
1714155332125257500,2.503257568359375,0.5635648369789124,0.7688025236129761,2.615633249282837,0.290797621011734,-0.39708665013313293,-0.870493471622467,-0.09765192866325378,0.09397077560424805,0.08346045017242432,0.5694310387341344,-0.0006372081172631022,0.2544658087644524,0.7816616517320071
1714155332135247400,2.513247314453125,0.6781919598579407,0.7168336510658264,2.573599338531494,0.2867211401462555,-0.4099462926387787,-0.8658723831176758,-0.02440735697746277,0.0615728497505188,0.10601520538330078,0.5582959005154638,0.0015439818504986297,0.2589621785556405,0.7881890167884715
1714155332145236500,2.523236572265625,0.7649329304695129,0.6668609976768494,2.463043451309204,0.2822261452674866,-0.42333850264549255,-0.8608907461166382,0.04661595821380615,0.023817628622055054,0.10075891017913818,0.5474201095012424,0.004081894708717684,0.2637005156985967,0.7942144019490828
1714155332155226400,2.533226318359375,0.7286810278892517,0.5774011611938477,2.315831184387207,0.2772800326347351,-0.4364885985851288,-0.8559167385101318,0.10733294486999512,-0.002125293016433716,0.08272337913513184,0.5370526956136117,0.006829151789807197,0.26831881576448335,0.7997079549118067
1714155332165216500,2.543216552734375,0.5651991367340088,0.45076411962509155,2.1591413021087646,0.2717813551425934,-0.44815704226493835,-0.8516396880149841,0.16687825322151184,-0.019295990467071533,0.09295743703842163,0.5273735130711434,0.009514560714419404,0.27219410998764626,0.8047962156982502
1714155332175205400,2.553205322265625,0.3643353581428528,0.2874082326889038,2.0217556953430176,0.265461802482605,-0.45766517519950867,-0.8485709428787231,0.22327715158462524,-0.05977562069892883,0.12748634815216064,0.5184205257065151,0.012081279321625393,0.27489739368285016,0.8096453637326756
1714155332185195500,2.563195556640625,0.18517707288265228,0.1554161012172699,1.9084312915802002,0.25825706124305725,-0.46509093046188354,-0.846754789352417,0.26455479860305786,-0.13006290793418884,0.1555163860321045,0.5101324053180638,0.014593213078690534,0.2764229376866829,0.8143354125531894
1714155332195184400,2.573184326171875,0.0804053246974945,0.06251465529203415,1.7986137866973877,0.25050824880599976,-0.4708241820335388,-0.845913827419281,0.2984113395214081,-0.1661386787891388,0.171139657497406,0.5024224085649979,0.017022436384614315,0.2770439275400853,0.818858019177968
1714155332205174500,2.583174560546875,0.09175652265548706,-0.021090755239129066,1.733577013015747,0.24233505129814148,-0.47580984234809875,-0.8455049395561218,0.31877633929252625,-0.16353341937065125,0.1791384220123291,0.49516213686451177,0.019575283444510594,0.27724416118051187,0.8231444342079767
1714155332215163400,2.593163330078125,0.15366291999816895,-0.10491082072257996,1.7016526460647583,0.2335861623287201,-0.4808853268623352,-0.845095694065094,0.31400594115257263,-0.1651718020439148,0.17042839527130127,0.4881737110098153,0.022511969933885295,0.27739026090580166,0.8271844660297635
1714155332225153500,2.603153564453125,0.1722690910100937,-0.20982764661312103,1.6363459825515747,0.22418513894081116,-0.48611366748809814,-0.8446505069732666,0.3149383068084717,-0.17744529247283936,0.18489104509353638,0.4814528155641893,0.025884222957299502,0.27749728305004473,0.830980408719404
1714155332235142400,2.613142333984375,0.11108563840389252,-0.29897430539131165,1.5092939138412476,0.21434275805950165,-0.4907096326351166,-0.8445479273796082,0.3382542133331299,-0.18125692009925842,0.19354701042175293,0.4752578887531668,0.02946133822203148,0.2772328592945336,0.8345081611021217
1714155332245132500,2.623132568359375,0.13907679915428162,-0.36022114753723145,1.445392370223999,0.20429958403110504,-0.494740754365921,-0.8446852564811707,0.3400118947029114,-0.15847277641296387,0.18231654167175293,0.469552437384765,0.03314935882820913,0.27669203610685733,0.8377726185428183
1714155332255121400,2.633121337890625,0.27598756551742554,-0.39460840821266174,1.413839340209961,0.19399698078632355,-0.4992729425430298,-0.8444475531578064,0.32123124599456787,-0.11988294124603271,0.19666624069213867,0.4640355202077006,0.03717832862524187,0.2763946281587685,0.8407703360623259
1714155332265111600,2.643111572265625,0.41581228375434875,-0.44932493567466736,1.326949119567871,0.18356603384017944,-0.5047569274902344,-0.8435187339782715,0.3251466751098633,-0.11095041036605835,0.19029003381729126,0.4587738702940206,0.04163441804401016,0.2765993511446094,0.8433775821252382
1714155332275100400,2.653100341796875,0.5123444199562073,-0.5072728991508484,1.2654364109039307,0.1729777753353119,-0.5109495520591736,-0.8420268893241882,0.33561283349990845,-0.13548898696899414,0.15762442350387573,0.45388894513850925,0.04649690803697174,0.27717252015720456,0.8455756754216414
1714155332285090600,2.663090576171875,0.5699992179870605,-0.5699219107627869,1.259157657623291,0.16197095811367035,-0.5175576210021973,-0.8401782512664795,0.3282328248023987,-0.15410375595092773,0.1293323040008545,0.44917553935253657,0.05173235215365004,0.27791119807414716,0.8475437546297758
1714155332295080400,2.67308056640625,0.6160374879837036,-0.6324055194854736,1.218090295791626,0.15044210851192474,-0.5244185924530029,-0.8380646109580994,0.3215121626853943,-0.15368199348449707,0.12288516759872437,0.44458395006710627,0.05732751575481171,0.27871355488957145,0.849339375435286
1714155332305069600,2.683069580078125,0.7110185623168945,-0.6549475789070129,1.1349331140518188,0.13887910544872284,-0.5316112041473389,-0.8355250358581543,0.3141237497329712,-0.14072149991989136,0.11051899194717407,0.44028900622108724,0.06314289265890016,0.27973281765193914,0.8508278780804609
1714155332315059500,2.6930595703125,0.8047913908958435,-0.6535531878471375,1.0491883754730225,0.1275763362646103,-0.5393444895744324,-0.8323651552200317,0.29046863317489624,-0.11411315202713013,0.10061466693878174,0.4363364135143276,0.06911773216705701,0.2811408224231442,0.8519348865646
1714155332325048300,2.70304833984375,0.9151895642280579,-0.6346558928489685,1.0446999073028564,0.11657018959522247,-0.5476788878440857,-0.8285283446311951,0.25316548347473145,-0.07149219512939453,0.07207387685775757,0.43251480566301215,0.07518241012121793,0.2829901882173105,0.8527573152135983
1714155332335038500,2.71303857421875,1.0511929988861084,-0.6272368431091309,1.0947908163070679,0.10542111843824387,-0.5569434762001038,-0.8238327503204346,0.20279110968112946,-0.03827136754989624,0.05750584602355957,0.4284448815417762,0.0815039117588576,0.28537825537177286,0.8534350223685191
1714155332345027300,2.72302734375,1.1402618885040283,-0.6103907823562622,1.0839048624038696,0.09423062205314636,-0.5670191049575806,-0.8182969093322754,0.16896817088127136,-0.03428393602371216,0.035444796085357666,0.42420095171692834,0.08802930577757992,0.28827482658522546,0.8539331860223938
1714155332355017500,2.733017578125,1.1376705169677734,-0.5794571042060852,1.0491456985473633,0.08331198990345001,-0.5772708654403687,-0.8122914433479309,0.1521463245153427,-0.05435138940811157,0.005605041980743408,0.41999399290967343,0.09451057273927821,0.2914138548118533,0.8542544119586561
1714155332365006300,2.74300634765625,1.0207023620605469,-0.5906484723091125,1.0043851137161255,0.0726250559091568,-0.5867622494697571,-0.8064959645271301,0.13375000655651093,-0.07668989896774292,-0.006065070629119873,0.4159536732676567,0.10075042289398829,0.29428113026313535,0.8545352620550285
1714155332374996500,2.75299658203125,0.9136751294136047,-0.6029046177864075,0.9914172887802124,0.06193193793296814,-0.5951959490776062,-0.8011904954910278,0.11719092726707458,-0.1210668683052063,-0.006884455680847168,0.412068597886484,0.10677276471491962,0.296655229141015,0.8548653295170837
1714155332384985300,2.7629853515625,0.7366824746131897,-0.5662723183631897,0.9372928142547607,0.05145033076405525,-0.6023001074790955,-0.7966099977493286,0.09448467940092087,-0.16108185052871704,-0.0017451047897338867,0.4083692717122597,0.112409125757073,0.29842788818072585,0.8553007965484377
1714155332394975500,2.7729755859375,0.6081872582435608,-0.481151819229126,0.8757656812667847,0.04180598631501198,-0.6080025434494019,-0.7928336262702942,0.06912535429000854,-0.18122780323028564,0.00911170244216919,0.40490494114305464,0.1173582629058059,0.299683536852749,0.855843882479932
1714155332404965400,2.78296533203125,0.5210601091384888,-0.4622623026371002,0.8368771076202393,0.03292780742049217,-0.6127572059631348,-0.7895848751068115,0.04396117478609085,-0.21039336919784546,0.0247076153755188,0.4016242861341621,0.12175868533605258,0.30063662363155513,0.8564404633247803
1714155332414954500,2.79295458984375,0.44466108083724976,-0.4746886193752289,0.8193656802177429,0.024145886301994324,-0.6167715191841125,-0.7867717742919922,0.030846739187836647,-0.23949068784713745,0.015470504760742188,0.3984797268347044,0.12596787084070807,0.3012411281824362,0.8570879133635827
1714155332424944400,2.8029443359375,0.47364187240600586,-0.4475424885749817,0.7762069702148438,0.01556721143424511,-0.6204552054405212,-0.7840873599052429,0.02743200585246086,-0.20449590682983398,-0.00872880220413208,0.39546704115021625,0.13004834070295823,0.30173457563413203,0.8577000937082653
1714155332434933500,2.81293359375,0.5783442258834839,-0.39279747009277344,0.6907078623771667,0.007714209146797657,-0.6246382594108582,-0.7808761596679688,0.02333737537264824,-0.14214634895324707,-0.00685882568359375,0.3926087180533402,0.1339896837148191,0.30266928374377927,0.8580772178456617
1714155332444923400,2.82292333984375,0.5739864706993103,-0.3631434440612793,0.6082667708396912,0.0007354725385084748,-0.629229724407196,-0.7772189974784851,0.01954340748488903,-0.14938044548034668,-0.020495235919952393,0.39000675243949096,0.13772792714923413,0.30400908777024327,0.8581982116154311
1714155332454912500,2.83291259765625,0.4145808517932892,-0.3613559305667877,0.5581004619598389,-0.005719990469515324,-0.6331085562705994,-0.7740418314933777,0.026975436136126518,-0.19680166244506836,-0.03107285499572754,0.3877011005137931,0.14112773280241583,0.30506072861530353,0.8583173067148736
1714155332464902400,2.84290234375,0.15251141786575317,-0.3741457462310791,0.5364649295806885,-0.012002707459032536,-0.6352611184120178,-0.7722041010856628,0.03901071846485138,-0.2305072546005249,-0.020642578601837158,0.3857118436566839,0.14407721857797706,0.305187977001269,0.8586782308972235
1714155332474891500,2.8528916015625,-0.08663542568683624,-0.4003587067127228,0.5192380547523499,-0.018353121355175972,-0.6353743672370911,-0.7719861268997192,0.04729899764060974,-0.26986855268478394,-0.005601763725280762,0.38401543410060485,0.14659582645766714,0.30416541265583874,0.8593748987797605
1714155332484881400,2.86288134765625,-0.2488621473312378,-0.4021853804588318,0.4396853744983673,-0.02451285347342491,-0.6339074969291687,-0.7730202674865723,0.05278734490275383,-0.310077428817749,0.01702362298965454,0.38267263460273654,0.14871056551565248,0.3022830163896087,0.8602742148427027
1714155332494870500,2.87287060546875,-0.3101494014263153,-0.3970462679862976,0.330109566450119,-0.03002196177840233,-0.6316073536872864,-0.7747069001197815,0.06018853932619095,-0.3254696726799011,0.03781425952911377,0.3818301282384142,0.1504585298636263,0.30001461420646613,0.8611382762915588
1714155332504860700,2.882860595703125,-0.3370899558067322,-0.39519643783569336,0.24789245426654816,-0.03489186614751816,-0.6289891600608826,-0.7766305804252625,0.06704208999872208,-0.30342960357666016,0.0493815541267395,0.3814470909158629,0.15197209107906084,0.29763935176393647,0.8618661253241261
1714155332514850600,2.8928505859375,-0.36348408460617065,-0.414720356464386,0.1759115308523178,-0.039350736886262894,-0.6261717081069946,-0.7786914706230164,0.07977122068405151,-0.2675965428352356,0.05428045988082886,0.3814009271928072,0.15334976154751134,0.2951916490584211,0.862484144655968
1714155332524839700,2.902839599609375,-0.3357832133769989,-0.4042986035346985,0.12818636000156403,-0.04348012059926987,-0.6233415603637695,-0.7807399034500122,0.08531967550516129,-0.23804759979248047,0.05883133411407471,0.3816294639013328,0.15465922946886299,0.2927637013673151,0.8629767186816728
1714155332534829600,2.91282958984375,-0.2718099057674408,-0.36925700306892395,0.10259518027305603,-0.04721898213028908,-0.6208889484405518,-0.7824751138687134,0.0747763141989708,-0.20012545585632324,0.06628859043121338,0.38192883131498234,0.15590780009803945,0.2906117921980277,0.8633468818799248
1714155332544818700,2.922818603515625,-0.15967939794063568,-0.3503735661506653,0.07169824838638306,-0.05054504796862602,-0.6191555857658386,-0.7836399674415588,0.06632258743047714,-0.16037017107009888,0.05240827798843384,0.3822411895027147,0.15715880601093762,0.28893101082595524,0.8635459906334372
1714155332554808600,2.93280859375,-0.06973106414079666,-0.3393808603286743,0.0522979199886322,-0.05363282933831215,-0.6182454824447632,-0.7841530442237854,0.060865454375743866,-0.13920074701309204,0.0300331711769104,0.382558902940515,0.15852350784689256,0.2877390950278271,0.8635537326248776
1714155332564797700,2.942797607421875,-0.007170486263930798,-0.30355706810951233,0.034620124846696854,-0.05642557144165039,-0.6179153323173523,-0.784217357635498,0.05341954156756401,-0.1167801022529602,0.025168895721435547,0.38286378975031465,0.15990055012854118,0.28692010123822065,0.8634373191898218
1714155332574787600,2.95278759765625,0.060191668570041656,-0.27492836117744446,-0.012069417163729668,-0.058734193444252014,-0.61811763048172,-0.7838882803916931,0.041949477046728134,-0.08427494764328003,0.012861669063568115,0.38321175611659436,0.16120326752154995,0.28647752281090644,0.8631875320229666
1714155332584776700,2.962776611328125,0.050205882638692856,-0.2636871635913849,-0.021496742963790894,-0.06071507930755615,-0.6185860633850098,-0.7833676338195801,0.02446015179157257,-0.07709258794784546,-0.005328655242919922,0.3836177542323236,0.16243932863982719,0.286233538056482,0.862856348483078
1714155332594766600,2.9727666015625,0.0030691013671457767,-0.23092521727085114,-0.022734377533197403,-0.06254322081804276,-0.6188197731971741,-0.7830392122268677,0.019818566739559174,-0.08699077367782593,-0.020961642265319824,0.3840401791764358,0.1635408910824538,0.28589295280886434,0.8625732199819728
1714155332604755700,2.982755615234375,-0.07064320147037506,-0.1749386489391327,-0.046154219657182693,-0.06396202743053436,-0.6185738444328308,-0.7831189632415771,0.02889728546142578,-0.09266883134841919,-0.01876091957092285,0.38449712486193277,0.16431896575997057,0.285376609932557,0.8623928512308777
1714155332614745600,2.99274560546875,-0.11800640821456909,-0.12329143285751343,-0.06749073415994644,-0.0647401437163353,-0.6178507208824158,-0.7836257219314575,0.03963939845561981,-0.1005178689956665,-0.02185523509979248,0.38505215871767956,0.1646812171520001,0.2847231022014501,0.862292135166302
1714155332624735500,3.002735595703125,-0.12295828759670258,-0.10085722804069519,-0.05952974408864975,-0.06519781798124313,-0.6169257760047913,-0.7843161225318909,0.03730470687150955,-0.10171735286712646,-0.03299039602279663,0.38558927454417563,0.16482334483840153,0.28403380660385197,0.8622522389817934
1714155332634724600,3.012724609375,-0.1244400143623352,-0.08461540192365646,-0.047185059636831284,-0.06559781730175018,-0.6159752011299133,-0.7850295901298523,0.0320131853222847,-0.08321303129196167,-0.03415369987487793,0.3860559727153525,0.1649063105179181,0.2833568527439806,0.8622502989466267
1714155332644714500,3.022714599609375,-0.10632172971963882,-0.05668177083134651,-0.04802049323916435,-0.0658530667424202,-0.615082859992981,-0.7857076525688171,0.03515233099460602,-0.05226027965545654,-0.03539830446243286,0.3864623665649228,0.1649145402700674,0.282753218486454,0.8622648435886973
1714155332654703600,3.03270361328125,-0.08668810874223709,-0.03050849214196205,-0.038742974400520325,-0.06592443585395813,-0.614345908164978,-0.7862780094146729,0.03746674954891205,-0.03503763675689697,-0.03823065757751465,0.3867934658669857,0.16485140567131368,0.28228535766888846,0.8622816938027288
1714155332664693500,3.042693603515625,-0.06191591918468475,-0.01622835546731949,-0.024134734645485878,-0.0659012570977211,-0.6137557625770569,-0.7867406606674194,0.03211825340986252,-0.037184178829193115,-0.041643738746643066,0.38702286368248434,0.16474971704271163,0.2819347331960544,0.862312958369927
1714155332674682600,3.0526826171875,-0.02564648538827896,-0.0009431422222405672,-0.02032102271914482,-0.06583119928836823,-0.6134259104728699,-0.787003755569458,0.031651467084884644,-0.04355645179748535,-0.04119753837585449,0.38716947093316467,0.16467093709815891,0.28174742489478155,0.862323402333945
1714155332684672500,3.062672607421875,0.011399682611227036,0.025390194728970528,-0.012439397163689137,-0.06558763980865479,-0.6134442090988159,-0.7870098352432251,0.0404411181807518,-0.03738892078399658,-0.0402911901473999,0.38722826728585696,0.16457608275145147,0.28179744373256366,0.8622987934379475
1714155332694661600,3.07266162109375,0.025462079793214798,0.039810411632061005,-0.015215476974844933,-0.06519551575183868,-0.6136758327484131,-0.786861777305603,0.0438789501786232,-0.03317469358444214,-0.0396457314491272,0.3872361727555188,0.16445172911339093,0.28200131754667784,0.862252220384282
1714155332704651500,3.082651611328125,0.010435191914439201,0.04255266860127449,-0.01128385215997696,-0.06474123150110245,-0.6138850450515747,-0.7867360711097717,0.034315161406993866,-0.03786355257034302,-0.04599708318710327,0.3872260465468935,0.1642847748433637,0.2822099825131178,0.8622203259156944
1714155332714641700,3.0926416015625,-0.0001599281094968319,0.05963471904397011,0.014658997766673565,-0.06428460031747818,-0.6139458417892456,-0.7867260575294495,0.018080934882164,-0.03757387399673462,-0.04719728231430054,0.3871476801045788,0.16405275799347074,0.28235379313933073,0.8622525918064341
1714155332724630500,3.102630615234375,0.00037536746822297573,0.08468973636627197,0.024432800710201263,-0.06381532549858093,-0.6139598488807678,-0.7867533564567566,0.013186618685722351,-0.028816640377044678,-0.03954052925109863,0.38695907633767496,0.16376530211036797,0.2824964367118793,0.8623451978074806
1714155332734620700,3.11262060546875,0.004253675229847431,0.09953711926937103,0.04318571463227272,-0.0632425993680954,-0.6139475703239441,-0.7868092060089111,0.012705445289611816,-0.025883972644805908,-0.03995776176452637,0.3866764103172633,0.16338905184473052,0.28266484600559283,0.8624881810936637
1714155332744609500,3.122609619140625,0.028380049392580986,0.10756255686283112,0.04580945894122124,-0.06265227496623993,-0.6140519380569458,-0.7867749929428101,0.006362557411193848,-0.0166395902633667,-0.03909170627593994,0.3863342714107902,0.163017270270128,0.2829096738938099,0.8626315379091029
1714155332754599700,3.132599609375,0.034125979989767075,0.11627988517284393,0.05431100353598595,-0.06203391030430794,-0.6142874360084534,-0.7866401672363281,0.005820486694574356,-0.0077828168869018555,-0.036067962646484375,0.3859409589645076,0.16265144711051532,0.2832391801542576,0.8627685668072219
1714155332764588500,3.142588623046875,0.02699936181306839,0.13118159770965576,0.049074962735176086,-0.061331022530794144,-0.6144964694976807,-0.7865319848060608,0.002065841108560562,-0.007802724838256836,-0.03374999761581421,0.3855270584773844,0.16222991746270574,0.2835761895082862,0.8629222534697182
1714155332774578700,3.15257861328125,0.023719731718301773,0.14405931532382965,0.052414100617170334,-0.06048204377293587,-0.6146625280380249,-0.786467969417572,-0.0038185417652130127,-0.014533638954162598,-0.026398181915283203,0.385102879117798,0.1617213157498228,0.28392291599585123,0.8630931154027737
1714155332784567600,3.162567626953125,0.013940604403614998,0.15142188966274261,0.06431736797094345,-0.0595974363386631,-0.6147608160972595,-0.7864587306976318,-0.010028459131717682,-0.015442371368408203,-0.024866342544555664,0.3846315785586666,0.16116068351681742,0.28424967123979644,0.8633006201404065
1714155332794557700,3.1725576171875,0.01372254453599453,0.15902894735336304,0.06736914813518524,-0.058753665536642075,-0.6148203015327454,-0.7864757180213928,-0.017616622149944305,-0.012041270732879639,-0.020058155059814453,0.3841118593774232,0.16059312818780075,0.28455579868024994,0.863536880438555
1714155332804546600,3.182546630859375,0.012887910008430481,0.16833029687404633,0.06556698679924011,-0.05785933509469032,-0.6148752570152283,-0.7864990234375,-0.018449917435646057,-0.010338366031646729,-0.0169830322265625,0.3835834193800259,0.15999651069493018,0.2848712102427151,0.8637784703012567
1714155332814536400,3.192536376953125,0.021403847262263298,0.17340095341205597,0.06580614298582077,-0.05689931660890579,-0.6149551868438721,-0.7865065336227417,-0.01951673999428749,-0.013508498668670654,-0.0135728120803833,0.3830463225871387,0.15937161194313942,0.28521467927636523,0.8640189494682775
1714155332824526600,3.202526611328125,0.03093077428638935,0.16720697283744812,0.06042522192001343,-0.05592921003699303,-0.6150925159454346,-0.7864687442779541,-0.023355502635240555,-0.01256251335144043,-0.009444952011108398,0.3825187393031157,0.1587605774263988,0.28558836329490755,0.8642416597694322
1714155332834515500,3.212515380859375,0.051372185349464417,0.1659928411245346,0.07229512929916382,-0.05503081902861595,-0.6153261661529541,-0.7863492965698242,-0.02716832235455513,-0.008437812328338623,-0.006573617458343506,0.3819598316712962,0.1582006187186845,0.28600334264800603,0.8644542513065533
1714155332844505600,3.222505615234375,0.05049760639667511,0.1647358387708664,0.07357212156057358,-0.054184600710868835,-0.6156559586524963,-0.7861499786376953,-0.028441786766052246,0.0009403824806213379,-0.0039348602294921875,0.38137636495115185,0.15768417915273047,0.28646243104994423,0.8646542893478468
1714155332854494500,3.232494384765625,0.03734898939728737,0.16546979546546936,0.0629083588719368,-0.053356267511844635,-0.6159641146659851,-0.7859651446342468,-0.027896836400032043,0.0011722445487976074,0.00027489662170410156,0.3807962258841043,0.15717125402689602,0.2869052390373565,0.8648564034374314
1714155332864484600,3.242484619140625,0.008078454062342644,0.16690737009048462,0.04558049514889717,-0.052474189549684525,-0.6160860061645508,-0.7859290242195129,-0.02262961119413376,-0.010668694972991943,0.0029852986335754395,0.3802959173756778,0.15660683648785792,0.28724517505376024,0.8650660823851968
1714155332874473500,3.252473388671875,-0.0018224865198135376,0.16897772252559662,0.044194720685482025,-0.05156060680747032,-0.616060197353363,-0.7860097289085388,-0.01711924374103546,-0.018247604370117188,0.008238732814788818,0.3798353395693007,0.15599940279969463,0.287505360199856,0.8652917732207177
1714155332884463600,3.262463623046875,-0.010864450596272945,0.16076958179473877,0.04143728315830231,-0.05069049447774887,-0.6159619092941284,-0.7861433625221252,-0.017760474234819412,-0.011967718601226807,0.010417044162750244,0.3794051974148335,0.15540342433909637,0.28771185097824875,0.8655190197946538
1714155332894452500,3.272452392578125,0.0014909119345247746,0.15969394147396088,0.04107682406902313,-0.049903471022844315,-0.6159119009971619,-0.7862328886985779,-0.01601453870534897,-0.006936609745025635,0.010415077209472656,0.3789666281992946,0.1548585098244832,0.28792776029680095,0.8657370457889145
1714155332904442600,3.282442626953125,0.006707245483994484,0.15675221383571625,0.044698454439640045,-0.04925786331295967,-0.6159474849700928,-0.7862457036972046,-0.01986449584364891,-0.0016824603080749512,0.015188634395599365,0.37850319440807156,0.1543979296739531,0.28816387606844246,0.8659434737366061
1714155332914432500,3.2924326171875,0.020650651305913925,0.15549786388874054,0.051004890352487564,-0.04877837374806404,-0.6160412430763245,-0.7862021923065186,-0.021396838128566742,0.003889143466949463,0.014153242111206055,0.37799544085876424,0.1540196869122825,0.28840396144809,0.8661527145903845
1714155332924421600,3.302421630859375,0.02603103592991829,0.15019764006137848,0.054568734019994736,-0.04842028394341469,-0.6161629557609558,-0.7861289381980896,-0.019283011555671692,0.006437063217163086,0.0151023268699646,0.3774489668400248,0.1536954811998148,0.28864031903464243,0.8663698537310975
1714155332934411500,3.31241162109375,0.0024679729249328375,0.14627213776111603,0.06127583980560303,-0.048101700842380524,-0.6162322163581848,-0.7860941886901855,-0.021310579031705856,0.0045378804206848145,0.015815317630767822,0.3769014987902267,0.15337582938739472,0.28884035343109626,0.8665981651626907
1714155332944400600,3.322400634765625,-0.02574875019490719,0.1339409053325653,0.06088275462388992,-0.047796204686164856,-0.6162305474281311,-0.7861141562461853,-0.021982282400131226,0.0065351128578186035,0.014767110347747803,0.3763708428505359,0.15304878288650728,0.28899653364330197,0.8668345425011514
1714155332954390500,3.332390625,-0.049571312963962555,0.13003191351890564,0.04469679296016693,-0.047395166009664536,-0.6161340475082397,-0.7862139940261841,-0.025862321257591248,-0.0006108880043029785,0.020024478435516357,0.37591847249018523,0.1526752270243787,0.28910770955607207,0.8670595341989922
1714155332964379600,3.342379638671875,-0.06041437387466431,0.12377588450908661,0.033586349338293076,-0.04694310575723648,-0.615858256816864,-0.7864571809768677,-0.026100758463144302,-0.009858846664428711,0.01832979917526245,0.37555644200012583,0.15225817440731088,0.2891173872050619,0.8672864345877205
1714155332974369500,3.35236962890625,1.3481543064117432,0.21549594402313232,0.17908363044261932,-0.04738926887512207,-0.6213534474372864,-0.7820959687232971,-0.01956634223461151,-0.003249824047088623,0.01242738962173462,0.3744503213875319,0.15359958197603296,0.2921629518600145,0.8665072067655042
1714155332984358700,3.362358642578125,0.7234528660774231,0.09134843200445175,0.06638317555189133,-0.04746566340327263,-0.6297800540924072,-0.7753219604492188,-0.014912310987710953,0.011265039443969727,0.01616668701171875,0.3728564978749024,0.15540096352469723,0.2969672892411524,0.8652392683107034
1714155332994348500,3.3723486328125,0.9048121571540833,0.11597681790590286,0.1947847604751587,-0.047363828867673874,-0.635276198387146,-0.770831286907196,-0.05099437013268471,0.041648268699645996,-0.005795300006866455,0.3716231768599953,0.15643955005007543,0.3001849918813975,0.8644720257173454
1714155333004337700,3.382337646484375,1.2428501844406128,0.23258651793003082,0.18293476104736328,-0.047362811863422394,-0.6437938213348389,-0.763731837272644,-0.026367709040641785,0.09096789360046387,0.04693496227264404,0.3696482506041656,0.15811014796890208,0.3051807183268522,0.863264798168159
1714155333014327600,3.39232763671875,0.7312033176422119,0.24106921255588531,0.10408522188663483,-0.04640740156173706,-0.6514954566955566,-0.7572317719459534,0.04715503379702568,0.07697159051895142,0.05276399850845337,0.36783502358191217,0.15914423890901427,0.3099310031617642,0.8621561157745014
1714155333024317400,3.4023173828125,0.09320394694805145,0.12961992621421814,0.03487924858927727,-0.04546332359313965,-0.6544603705406189,-0.7547281980514526,0.027869898825883865,-0.012287616729736328,-0.013643324375152588,0.3669337985524266,0.15918396026699824,0.3119236405551472,0.8618141416096302
1714155333034306600,3.412306640625,-0.425070583820343,0.0020750181283801794,-0.030786778777837753,-0.04500039666891098,-0.6532558798789978,-0.7557986974716187,-0.0079171322286129,-0.04114103317260742,0.07585179805755615,0.3669314164630158,0.15861508191612217,0.31135496393802625,0.8621255651813929
1714155333044296400,3.42229638671875,-0.8538334369659424,-0.07656200975179672,-0.12042265385389328,-0.044831532984972,-0.6482936143875122,-0.7600693702697754,-0.01893499121069908,-0.07684975862503052,0.08515793085098267,0.36786528231422067,0.15747835383934575,0.3084896660703809,0.8629656208238633
1714155333054285600,3.43228564453125,-0.8791037797927856,0.009911902248859406,-0.1155608519911766,-0.04431076720356941,-0.6415882706642151,-0.7657682299613953,-0.04512104392051697,-0.08140361309051514,0.049215495586395264,0.36917220158713965,0.1558209323855222,0.304689546798174,0.8640578097254964
1714155333064275500,3.442275390625,-0.3811775743961334,0.013205700553953648,0.0723283514380455,-0.043998170644044876,-0.6365285515785217,-0.7699971199035645,-0.037804245948791504,-0.07341712713241577,0.006050586700439453,0.36970375449607823,0.15445662515681818,0.30190163306271456,0.8650535495588194
1714155333074264600,3.4522646484375,0.02022119052708149,0.028036577627062798,0.05462998151779175,-0.04428451880812645,-0.6353362798690796,-0.7709647417068481,-0.0031856223940849304,-0.044808924198150635,-0.037888407707214355,0.3694536038908619,0.15418312708239262,0.3012394088925605,0.865439996941203
1714155333084254500,3.46225439453125,0.038008708506822586,0.045234207063913345,0.026810070499777794,-0.044178083539009094,-0.6356207132339478,-0.7707363963127136,-0.027126286178827286,0.07695066928863525,-0.04313689470291138,0.3692247692716596,0.154128994224898,0.3014565628349688,0.8654716298822128
1714155333094244600,3.47224462890625,-0.01037224568426609,0.05682534724473953,0.04578303173184395,-0.044051554054021835,-0.6357141733169556,-0.7706665396690369,-0.047196052968502045,0.09730786085128784,-0.03710317611694336,0.368963715918041,0.1540012487455869,0.30157974078215927,0.8655628437630191
1714155333104233500,3.4822333984375,-0.07287290692329407,0.0803447887301445,0.014630703255534172,-0.04370784014463425,-0.6353418231010437,-0.7709931135177612,-0.041298918426036835,0.0407831072807312,-0.0011473894119262695,0.36875650623490813,0.15365746855570936,0.3014843825586245,0.8657454098545992
1714155333114223400,3.492223388671875,-0.056022290140390396,0.08005716651678085,0.013748797588050365,-0.04313771799206734,-0.6348115801811218,-0.7714618444442749,-0.023863669484853745,0.006805598735809326,0.011619925498962402,0.3686387053454171,0.15319008898526992,0.3013334725886356,0.8659309606630438
1714155333124212500,3.50221240234375,-0.030095349997282028,0.06565878540277481,0.03359919786453247,-0.042729947715997696,-0.6344828009605408,-0.7717549800872803,-0.031275227665901184,0.009467542171478271,0.013362646102905273,0.368449035132518,0.1528331100815207,0.3012715580251092,0.8660962856186226
1714155333134202400,3.512202392578125,-0.04786614701151848,0.063385508954525,0.029839150607585907,-0.04242763668298721,-0.6341835260391235,-0.7720175981521606,-0.03551430255174637,0.016889214515686035,0.0073386430740356445,0.36824136901156024,0.1525300786388985,0.30120720219300123,0.866260430390707
1714155333144191500,3.52219140625,-0.06179288402199745,0.07191907614469528,0.014167246408760548,-0.04204702377319336,-0.6337534785270691,-0.7723914384841919,-0.03375868499279022,0.009394347667694092,0.0062018632888793945,0.36808842154872173,0.15217197024922843,0.30107802883173124,0.8664332133584993
1714155333154181400,3.532181396484375,-0.08136045932769775,0.07424827665090561,0.01400705799460411,-0.04154404252767563,-0.6331691741943359,-0.7728976607322693,-0.03154560551047325,-0.003427445888519287,0.005319535732269287,0.3679811384118463,0.15172758043852,0.30088188998107435,0.8666247795623939
1714155333164170500,3.54217041015625,-0.0778256431221962,0.06294795125722885,0.02886669710278511,-0.041149601340293884,-0.6325245499610901,-0.7734464406967163,-0.027804914861917496,-0.006193101406097412,-0.0021578073501586914,0.3678394192974402,0.1513086165647881,0.30063679473940275,0.866843323543119
1714155333174160400,3.552160400390625,-0.06317585706710815,0.052997589111328125,0.03793516010046005,-0.04092897102236748,-0.631966769695282,-0.7739139795303345,-0.024393953382968903,0.003762483596801758,-0.0006679296493530273,0.3676477232257813,0.15098195367813685,0.30041216861908526,0.8670594897914954
1714155333184150800,3.56215087890625,-0.06798446178436279,0.05531986430287361,0.03269166499376297,-0.040836408734321594,-0.6314229369163513,-0.7743626236915588,-0.015315983444452286,0.008727073669433594,0.004968702793121338,0.3674536598923912,0.15072167645902584,0.3001694083459245,0.8672710810498515
1714155333194139400,3.572139404296875,-0.07945762574672699,0.044141776859760284,0.043618347495794296,-0.04074767231941223,-0.6308520436286926,-0.7748324275016785,-0.0073328204452991486,0.002022087574005127,0.010901153087615967,0.36725988541433985,0.1504563495442815,0.2999111124638266,0.8674885231536741
1714155333204129800,3.5821298828125,-0.07650577276945114,0.03758001700043678,0.044926758855581284,-0.04080561548471451,-0.6302269697189331,-0.7753378748893738,-0.006481420248746872,-0.0027838945388793945,0.02094334363937378,0.36704454127065234,0.15024153550398203,0.29959731213718027,0.8677251945532765
1714155333214118400,3.592118408203125,-0.06736677139997482,0.03443801775574684,0.046199213713407516,-0.040950581431388855,-0.6296352744102478,-0.7758107781410217,-0.0007212162017822266,-0.005694925785064697,0.031365036964416504,0.36683606973681404,0.15008131038733552,0.29928280394451984,0.8679496380300511
1714155333224108800,3.60210888671875,-0.06776997447013855,0.025980085134506226,0.053770847618579865,-0.04122134670615196,-0.6291053891181946,-0.776226282119751,0.006553329527378082,-0.00692671537399292,0.029949426651000977,0.366587626902188,0.1499862771726695,0.29898325571149365,0.86817433060767
1714155333234097400,3.612097412109375,-0.05470844358205795,0.01938263513147831,0.05886547639966011,-0.041622333228588104,-0.628686249256134,-0.7765443325042725,0.013683442026376724,-0.0014406442642211914,0.02727675437927246,0.36631491171247776,0.14997723791369166,0.2987216962465853,0.8683809671962001
1714155333244087800,3.622087890625,-0.06052292138338089,0.015792693942785263,0.060270559042692184,-0.042139504104852676,-0.628291130065918,-0.7768362164497375,0.021036550402641296,-0.0007524490356445312,0.02535611391067505,0.366015949567666,0.15002317189106712,0.29845427249170126,0.8685909889522765
1714155333254076400,3.632076416015625,-0.07080022245645523,0.006119294557720423,0.061534229665994644,-0.042710863053798676,-0.6277568936347961,-0.777236819267273,0.028001345694065094,-0.005772769451141357,0.02148425579071045,0.365742479219422,0.15006749061573654,0.29809617675099104,0.868821532386673
1714155333264066800,3.64206689453125,-0.0706377625465393,0.006447396241128445,0.060148321092128754,-0.04322676360607147,-0.6271969079971313,-0.7776601910591125,0.03152322769165039,-0.008652091026306152,0.021800875663757324,0.3654842152975194,0.15008319073522164,0.29773297991514486,0.8690519280814248
1714155333274056700,3.652056640625,-0.07404432445764542,0.0054295361042022705,0.06763726472854614,-0.04363888502120972,-0.6266949772834778,-0.7780417799949646,0.031904831528663635,-0.011366486549377441,0.018321990966796875,0.36523689489801187,0.1500673253570085,0.297420444179716,0.869265589728355
1714155333284045800,3.6620458984375,-0.05838547646999359,0.008153683505952358,0.08858276158571243,-0.0441216342151165,-0.6263173222541809,-0.7783186435699463,0.02828296646475792,-0.005106568336486816,0.012281656265258789,0.36492250569769435,0.15009685669567246,0.297172695967761,0.8694773865451518
1714155333294035700,3.67203564453125,-0.02836908958852291,0.015666726976633072,0.09643934667110443,-0.04460896551609039,-0.6262143850326538,-0.7783737182617188,0.02709183096885681,0.009240508079528809,0.00910186767578125,0.3645052725237996,0.15016721877947622,0.2970908205920363,0.8696681935254685
1714155333304024600,3.682024658203125,-0.006458464078605175,0.028374265879392624,0.09764975309371948,-0.044936250895261765,-0.6263501644134521,-0.7782455682754517,0.025008223950862885,0.01618170738220215,0.0014969706535339355,0.3640715439190812,0.1502168264225403,0.2971735301217915,0.8698130254961892
1714155333314014700,3.6920146484375,0.011656571179628372,0.04006980359554291,0.1257527619600296,-0.04518139734864235,-0.6265470385551453,-0.7780728340148926,0.021789629012346268,0.017996132373809814,-0.009585797786712646,0.363542397481231,0.15020958579548094,0.29732247534307754,0.869984590256399
1714155333324003600,3.702003662109375,0.022146761417388916,0.050529368221759796,0.13274942338466644,-0.045415859669446945,-0.6267969608306885,-0.7778578400611877,0.015951093286275864,0.03231459856033325,-0.01187598705291748,0.36291176141984693,0.1501764046871088,0.29751994016563144,0.8701860730312772
1714155333333993700,3.71199365234375,0.018162939697504044,0.05923870578408241,0.13809117674827576,-0.04553776606917381,-0.6270650029182434,-0.7776347398757935,0.012075193226337433,0.030949890613555908,-0.013289332389831543,0.3622604003901714,0.1500851798754446,0.2977533893917113,0.8703933628964035
1714155333343982600,3.721982666015625,-0.0060814134776592255,0.0697973370552063,0.138985738158226,-0.04554493725299835,-0.6272438168525696,-0.7774900794029236,0.00988510251045227,0.018677592277526855,-0.019110262393951416,0.36158933732892207,0.14990662064818006,0.2979647144557597,0.8706308781570844
1714155333353972700,3.73197265625,-0.030461641028523445,0.07986301928758621,0.13533015549182892,-0.04542652517557144,-0.6272320747375488,-0.7775065302848816,0.007203210145235062,0.009693622589111328,-0.017613768577575684,0.3609435414690177,0.14962391733092906,0.29809299060097766,0.8709035660240014
1714155333363962600,3.741962646484375,-0.05333952605724335,0.08844532072544098,0.1308043748140335,-0.04521847516298294,-0.6269806027412415,-0.7777214050292969,0.005347210913896561,0.0005005598068237305,-0.01352304220199585,0.3603257878964553,0.14924304240805286,0.29810367170179625,0.8712210352276398
1714155333373951700,3.75195166015625,-0.07891769707202911,0.09801273047924042,0.1280808299779892,-0.04495391249656677,-0.6264004111289978,-0.7782041430473328,0.0017867498099803925,-0.004184305667877197,-0.013452351093292236,0.3597304207093772,0.14875533017401188,0.2979425682054624,0.8716054857750521
1714155333383941600,3.761941650390625,-0.10309892892837524,0.10317926108837128,0.12195822596549988,-0.04465368762612343,-0.6255019903182983,-0.7789437174797058,0.0010440200567245483,-0.00656282901763916,-0.01011878252029419,0.35916862523534104,0.1481783473477089,0.2976093631861366,0.872049068131676
1714155333393930800,3.7719306640625,-0.1048073023557663,0.10280535370111465,0.1255437731742859,-0.04434966668486595,-0.6244451403617859,-0.779808521270752,-0.00296788290143013,-0.007848501205444336,-0.0041117072105407715,0.35860540013415787,0.14755843305168517,0.2971905682220549,0.8725287571637802
1714155333403920600,3.781920654296875,-0.08924564719200134,0.11077326536178589,0.13122563064098358,-0.04411313682794571,-0.6233081817626953,-0.7807310223579407,-0.005188059061765671,-0.0071849822998046875,-0.002929866313934326,0.3580245425333836,0.14694629273903245,0.296717522684677,0.8730313693574007
1714155333413909800,3.79190966796875,-0.06696159392595291,0.10873275250196457,0.1460493803024292,-0.04397263377904892,-0.6223597526550293,-0.781495213508606,-0.007403761148452759,-0.002319812774658203,-0.006239771842956543,0.3573680474876773,0.14640647497112305,0.296340249309911,0.8735191035907733
1714155333423899600,3.801899658203125,-0.03367926925420761,0.11914651095867157,0.1401701718568802,-0.04388925060629845,-0.6216952800750732,-0.7820285558700562,-0.016291461884975433,0.009390592575073242,-0.0014797449111938477,0.35664077325737176,0.1459458865370876,0.29611739002744,0.8739688583604532
1714155333433888800,3.811888671875,0.011413371190428734,0.12652772665023804,0.12995901703834534,-0.043674446642398834,-0.6214246153831482,-0.7822557091712952,-0.020626138895750046,0.013148307800292969,0.005415499210357666,0.3558974095697039,0.14551761102484861,0.2961364075455306,0.8743368103740394
1714155333443878700,3.821878662109375,0.02648792788386345,0.1292065978050232,0.13435404002666473,-0.04343524947762489,-0.6215229630470276,-0.7821908593177795,-0.02410019561648369,0.006166577339172363,0.007822632789611816,0.35512816787971097,0.14516412500173498,0.2963645595003598,0.8746308949819949
1714155333453868500,3.83186865234375,0.027907393872737885,0.1284787654876709,0.14984138309955597,-0.04330877959728241,-0.6216740608215332,-0.7820777893066406,-0.02572203055024147,-0.0009149909019470215,0.005237579345703125,0.35430408408560443,0.1448612327618653,0.29660805827035197,0.8749327482222246
1714155333463857700,3.841857666015625,0.03252052143216133,0.12114600837230682,0.14045293629169464,-0.04324473813176155,-0.6219059824943542,-0.7818969488143921,-0.02789178490638733,0.009326696395874023,0.00908505916595459,0.3534480921426611,0.14459897500359453,0.2968883140519773,0.8752273450083772
1714155333473847600,3.85184765625,0.01532662007957697,0.11448144912719727,0.12973931431770325,-0.04321598634123802,-0.6221181750297546,-0.7817296981811523,-0.028759770095348358,0.005144298076629639,0.011862754821777344,0.35265946816073784,0.14437172659098446,0.29713963197006615,0.8754975794090788
1714155333483836700,3.861836669921875,-0.015940487384796143,0.10890239477157593,0.12937498092651367,-0.04320508614182472,-0.6221143007278442,-0.7817333936691284,-0.029213175177574158,-0.010255634784698486,0.011484980583190918,0.35191296696258456,0.14411195958142894,0.2972626004990732,0.8757989752179286
1714155333493826600,3.87182666015625,-0.0374726764857769,0.09409601986408234,0.12565109133720398,-0.043294165283441544,-0.6218111515045166,-0.7819696664810181,-0.029780223965644836,-0.019698798656463623,0.021410584449768066,0.3512049527757094,0.1438382300388518,0.2971964666864712,0.8761506194777455
1714155333503815700,3.881815673828125,-0.04584325850009918,0.08792653679847717,0.11522934585809708,-0.04352281987667084,-0.6213540434837341,-0.7823202013969421,-0.02663714438676834,-0.023634910583496094,0.02369898557662964,0.3505505845923512,0.14361299228248595,0.2970104581684999,0.8765126116069153
1714155333513804800,3.8918046875,-0.057179272174835205,0.08533927798271179,0.11445517092943192,-0.04379505664110184,-0.6208281517028809,-0.7827224135398865,-0.01894913613796234,-0.025518834590911865,0.023445069789886475,0.3499256633602362,0.1434023464485605,0.29677358085029665,0.8768770018300316
1714155333523795000,3.901794921875,-0.04429894685745239,0.07261788845062256,0.12051831930875778,-0.04417135939002037,-0.6203727722167969,-0.7830622792243958,-0.01840498298406601,-0.016208648681640625,0.024868309497833252,0.3492938793763901,0.1432595396883016,0.296556191276077,0.8772256475583113
1714155333533783800,3.91178369140625,-0.031125247478485107,0.0638853907585144,0.12419914454221725,-0.044694069772958755,-0.6200721263885498,-0.7832707166671753,-0.015288278460502625,-0.005110979080200195,0.028647303581237793,0.34863188862668903,0.14321893862294602,0.2964000416772081,0.8775483344294843
1714155333543774000,3.92177392578125,-0.03487471118569374,0.05163910984992981,0.12641941010951996,-0.04532331973314285,-0.6197670698165894,-0.783475935459137,-0.004878144711256027,-0.003981649875640869,0.030103743076324463,0.34797511172424184,0.14323233156776197,0.2962204238499657,0.8778674076008192
1714155333553762800,3.9317626953125,-0.04456606134772301,0.04580838605761528,0.12648625671863556,-0.0460154190659523,-0.619466245174408,-0.7836734652519226,0.005274403840303421,-0.004633426666259766,0.025357425212860107,0.34731850840993733,0.1432785399261116,0.29603131175863784,0.8781835892067633
1714155333563753000,3.9417529296875,-0.06569291651248932,0.03910733759403229,0.12355812638998032,-0.046748287975788116,-0.6191381812095642,-0.7838893532752991,0.009669382125139236,-0.004992067813873291,0.019134163856506348,0.3466934561592785,0.14334921621219615,0.2958146649056041,0.8784920945580454
1714155333573741800,3.951741943359375,-0.07005927711725235,0.040182724595069885,0.13143302500247955,-0.04749355465173721,-0.6188210844993591,-0.7840948700904846,0.006722021847963333,-0.006758689880371094,0.018180012702941895,0.3460691104196599,0.14342963596125613,0.29560193592581036,0.8787965982689054
1714155333583732000,3.96173193359375,-0.048842672258615494,0.04351513460278511,0.13034005463123322,-0.04824575036764145,-0.6186322569847107,-0.7841979265213013,0.002866063266992569,-0.0031175613403320312,0.02122795581817627,0.34541527893935264,0.1435362575491383,0.2954629775929769,0.8790831313715515
1714155333593721900,3.971721923828125,-0.03506086766719818,0.04603901505470276,0.13663837313652039,-0.048902399837970734,-0.6185768246650696,-0.7842010259628296,0.005399547517299652,0.0042427778244018555,0.017965734004974365,0.3447524410221096,0.14362615697412068,0.2954166939477924,0.8793441883661894
1714155333603711000,3.9817109375,-0.03096519038081169,0.04459025338292122,0.15556678175926208,-0.04959491640329361,-0.6185120940208435,-0.7842086553573608,0.006946548819541931,0.013180673122406006,0.01165616512298584,0.3440323220145955,0.1437125761140692,0.29536820252813195,0.8796284175423169
1714155333613700900,3.991700927734375,-0.045108601450920105,0.04391860589385033,0.15204980969429016,-0.05029980465769768,-0.6183217763900757,-0.7843137979507446,0.005957715213298798,0.02495330572128296,0.009533524513244629,0.3432866449290402,0.14376558010942428,0.2952533965991746,0.8799494996477814
1714155333623690000,4.00168994140625,-0.06007742881774902,0.04858126863837242,0.14094921946525574,-0.05086313933134079,-0.6180093884468079,-0.784523606300354,0.00314885750412941,0.018278002738952637,0.006569504737854004,0.3425952244133732,0.14373628218349943,0.29508992792927047,0.8802785698526041
1714155333633680000,4.011679931640625,-0.07781695574522018,0.05369986221194267,0.13721035420894623,-0.051247477531433105,-0.6175705194473267,-0.784844160079956,-0.0009528882801532745,-0.00036466121673583984,0.006874799728393555,0.3419563596030828,0.14360447730197842,0.2948824666244622,0.8806179084852707
1714155333643669000,4.0216689453125,-0.08637689054012299,0.05892658233642578,0.14464589953422546,-0.05155054107308388,-0.6169834733009338,-0.7852858304977417,-0.003777872771024704,-0.007879078388214111,0.007316529750823975,0.3413282352093203,0.143399601189473,0.29460759570723455,0.8809868445189497
1714155333653659000,4.031658935546875,-0.0781395211815834,0.06399910151958466,0.14308880269527435,-0.05186062678694725,-0.6164112091064453,-0.7857146859169006,-0.00503944605588913,-0.002149522304534912,0.00603640079498291,0.3406674064856288,0.14319160854632107,0.29434470936852497,0.8813642363332381
1714155333663648000,4.04164794921875,-0.0664096251130104,0.06656505912542343,0.15068839490413666,-0.05222058296203613,-0.6158963441848755,-0.7860945463180542,-0.010401535779237747,0.005926311016082764,0.0032728910446166992,0.3399825641815868,0.14301531309403553,0.2941077342254402,0.881736298799156
1714155333673638000,4.051637939453125,-0.04918782040476799,0.06613735109567642,0.15937350690364838,-0.052589088678359985,-0.6154436469078064,-0.7864245176315308,-0.016289133578538895,0.013026654720306396,0.0021685361862182617,0.33924439271594536,0.14284141598876662,0.29391169357090585,0.882114180920868
