time,seconds_elapsed,rotationRateX,rotationRateY,rotationRateZ,gravityX,gravityY,gravityZ,accelerationX,accelerationY,accelerationZ,quaternionW,quaternionX,quaternionY,quaternionZ
1714155283316278800,0.04327880859375,0.13410361111164093,-0.026660222560167313,0.03460327908396721,-0.9126955270767212,0.10165999084711075,-0.39579281210899353,0.005224943161010742,0.009317182004451752,-0.0010425746440887451,0.8354018312972152,-0.060844964475334606,-0.5462613759426309,0
1714155283326267600,0.053267578125,0.14633119106292725,-0.02599496580660343,0.033902399241924286,-0.9127404093742371,0.101504385471344,-0.3957292139530182,0.0011346936225891113,0.011578492820262909,-0.003806978464126587,0.8353826219073877,-0.0603883747808836,-0.546341135373827,0.0005578786989561269
1714155283336257800,0.0632578125,0.15812340378761292,-0.03141316771507263,0.03062724508345127,-0.9127880930900574,0.10129744559526443,-0.3956720232963562,-0.0035935044288635254,0.010915681719779968,-0.009189486503601074,0.8353648352143641,-0.05988062545041556,-0.5464231933767294,0.0011466482045599524
1714155283346246700,0.07324658203125,0.1540457159280777,-0.024458320811390877,0.034949757158756256,-0.9128304719924927,0.10111533850431442,-0.39562106132507324,-0.0038716793060302734,0.0022934675216674805,-0.012780547142028809,0.8353486163834635,-0.05937899484714826,-0.5465012453640257,0.0017484093458332017
1714155283356236800,0.08323681640625,0.16184958815574646,-0.026127858087420464,0.034466926008462906,-0.9128464460372925,0.10099043697118759,-0.39561617374420166,-0.0032606124877929688,-0.0056077539920806885,-0.01386880874633789,0.8353456289415723,-0.05889003077493571,-0.5465563867608141,0.0023816193373100147
1714155283366225700,0.0932255859375,0.17873035371303558,-0.029609408229589462,0.041204456239938736,-0.9128918051719666,0.10084397345781326,-0.395548939704895,-0.0045427680015563965,-0.006666727364063263,-0.010029762983322144,0.8353233075551361,-0.058361490303963065,-0.5466438174422156,0.003057332462925999
1714155283376215800,0.1032158203125,0.2072698473930359,-0.026719611138105392,0.04605567082762718,-0.9129323959350586,0.10058708488941193,-0.39552080631256104,-0.003617227077484131,-0.00756952166557312,-0.009630680084228516,0.8353118786392746,-0.05772068169799524,-0.546724723466829,0.003802229454713535
1714155283386209500,0.11320947265625,0.21723002195358276,-0.017517324537038803,0.042584437876939774,-0.9129505157470703,0.10021898150444031,-0.39557209610939026,-0.0026071667671203613,-0.0015556588768959045,-0.009152084589004517,0.8353357849453883,-0.059987245256277855,-0.5464572148014523,-1.1102230246251565e-16
1714155283396199400,0.123199462890625,0.22272546589374542,-0.025161929428577423,0.042904019355773926,-0.9129782915115356,0.09987316280603409,-0.39559558033943176,-0.006714582443237305,0.008204847574234009,-0.0083199143409729,0.8353424467021471,-0.0592369283868969,-0.5465283142655765,0.0008297099349857118
1714155283406188500,0.1331884765625,0.22561222314834595,-0.030419006943702698,0.03763661906123161,-0.9130257964134216,0.09950916469097137,-0.3955777585506439,-0.0021504759788513184,0.010964445769786835,-0.0026156604290008545,0.8353358879567252,-0.05846957079008186,-0.5466190850734292,0.0016699963887886193
1714155283416178400,0.143178466796875,0.22593925893306732,-0.04049774259328842,0.036323413252830505,-0.9130989909172058,0.09908689558506012,-0.39551451802253723,0.004117906093597412,0.0037267953157424927,-0.0028772950172424316,0.8353148242107716,-0.05768527551883815,-0.5467313302760526,0.002484000283171417
1714155283426167600,0.15316748046875,0.20475193858146667,-0.04862970486283302,0.04336807504296303,-0.9132014513015747,0.09861312061548233,-0.39539650082588196,0.007836639881134033,0.004444703459739685,-0.007084667682647705,0.8352768568352915,-0.05689216451887341,-0.5468683853221885,0.0032655992741078554
1714155283436156400,0.163156494140625,0.1774713099002838,-0.04728161171078682,0.04925765469670296,-0.9133164286613464,0.09823215752840042,-0.39522597193717957,0.011888325214385986,0.0037423372268676758,-0.008704841136932373,0.8352227825824912,-0.05619499683522014,-0.5470184049684405,0.003986588003331515
1714155283446146600,0.173146484375,0.1514265090227127,-0.0642467513680458,0.06494387239217758,-0.9134669303894043,0.09806178510189056,-0.39492037892341614,0.014205455780029297,-0.0027248412370681763,-0.007896602153778076,0.8351277844021885,-0.05565153176575585,-0.5472135938483723,0.004668655743513828
1714155283456135400,0.183135498046875,0.14828184247016907,-0.07322586327791214,0.07405481487512589,-0.9136589765548706,0.09804902970790863,-0.3944788873195648,0.016030311584472656,-0.003307230770587921,-0.0051946938037872314,0.8349913903570689,-0.0551984985708788,-0.547461121981691,0.005359726683971611
1714155283466125600,0.19312548828125,0.1532486379146576,-0.07686587423086166,0.08020725101232529,-0.913862943649292,0.0981735959649086,-0.39397501945495605,0.018629908561706543,0.0006575584411621094,-0.006553053855895996,0.8348352763562916,-0.05478192230345025,-0.5477329945553508,0.00612144054222824
1714155283476114400,0.203114501953125,0.18249787390232086,-0.07794605195522308,0.08077024668455124,-0.9140585660934448,0.09835050255060196,-0.3934767544269562,0.01511770486831665,0.009941115975379944,-0.008302509784698486,0.8346794169943595,-0.0543427911754879,-0.5480040862118852,0.006964260791052446
1714155283486104600,0.2131044921875,0.20294860005378723,-0.07760676741600037,0.07746871560811996,-0.9142638444900513,0.09843815863132477,-0.3929774761199951,0.007434189319610596,0.01896297186613083,-0.012982696294784546,0.8345215364612728,-0.0537923237201903,-0.548286098818953,0.007894104040637395
1714155283496093400,0.223093505859375,0.22141124308109283,-0.07171531766653061,0.06865125894546509,-0.9144669771194458,0.09831106662750244,-0.392536461353302,0.004371941089630127,0.021409355103969574,-0.01707056164741516,0.8343801204733496,-0.053111469256508226,-0.5485535040654786,0.008823899349787334
1714155283506083600,0.23308349609375,0.25877803564071655,-0.05510624498128891,0.061301007866859436,-0.9146122932434082,0.09804317355155945,-0.3922649919986725,-0.0008081197738647461,0.021814607083797455,-0.018013447523117065,0.8342882662536556,-0.05233140394693364,-0.5487521616806604,0.009771463411931414
1714155283516072400,0.243072509765625,0.3188040852546692,-0.02418108657002449,0.04872768372297287,-0.9146709442138672,0.0974545031785965,-0.3922748267650604,-0.009401202201843262,0.02061799168586731,-0.02102482318878174,0.8342782459138308,-0.051288310888603944,-0.5488461498485444,0.010820029228295003
1714155283526062600,0.2530625,0.32814961671829224,-0.007968560792505741,0.032642461359500885,-0.9146571159362793,0.09653938561677933,-0.3925331234931946,-0.018310844898223877,0.022906407713890076,-0.030684709548950195,0.8343412618719571,-0.05004323262235891,-0.5488434342355998,0.011873255455693177
1714155283536051500,0.263051513671875,0.3422220051288605,-0.0026547557208687067,0.01912824995815754,-0.9146237969398499,0.0954551175236702,-0.3928760588169098,-0.023288071155548096,0.029789000749588013,-0.03307318687438965,0.8344289744034041,-0.048715381734062785,-0.548806683098066,0.012897133986544684
1714155283546040600,0.27304052734375,0.3685529828071594,0.008345164358615875,0.01026451587677002,-0.914551317691803,0.09424911439418793,-0.3933357000350952,-0.019103407859802246,0.02370131015777588,-0.024999380111694336,0.8345497759061272,-0.047297367290477205,-0.5487213350283422,0.013946148690358984
1714155283556030500,0.283030517578125,0.4070167541503906,0.01932990550994873,0.0032545439898967743,-0.914448082447052,0.09294245392084122,-0.3938862085342407,-0.014277994632720947,0.008635282516479492,-0.016407489776611328,0.8346948952423656,-0.045761497270800505,-0.5486007506178663,0.015082622834487414
1714155283566019600,0.29301953125,0.45129817724227905,0.03421378135681152,0.0039626117795705795,-0.9142895936965942,0.09151141345500946,-0.3945886194705963,-0.012971639633178711,0.019770920276641846,-0.00471872091293335,0.8348816093275351,-0.044071983978166696,-0.548418952885704,0.016339364604846918
1714155283576009500,0.303009521484375,0.4904772639274597,0.042344409972429276,0.0030952205415815115,-0.9141477942466736,0.08963870257139206,-0.39534634351730347,-0.014441072940826416,0.02928829938173294,0.00794076919555664,0.8350823737564433,-0.04209964904003713,-0.5482284625806372,0.017625276406872337
1714155283585998600,0.31299853515625,0.5116062760353088,0.04259900748729706,0.009046386927366257,-0.9139862656593323,0.0876830443739891,-0.3961576819419861,-0.017410218715667725,0.021615661680698395,0.012124300003051758,0.8352950054696556,-0.04001746285810398,-0.5480143862543256,0.019005221157565533
1714155283595988500,0.322988525390625,0.5153443217277527,0.041449856013059616,0.014204664155840874,-0.9138181805610657,0.08567261695861816,-0.3969842195510864,-0.017578184604644775,0.009725302457809448,0.016353607177734375,0.8355087116565955,-0.037877301665979884,-0.5477893815775963,0.020426632922036114
1714155283605977600,0.3329775390625,0.4869137406349182,0.04304002970457077,0.005478084087371826,-0.9136514067649841,0.08371768146753311,-0.3977842628955841,-0.01570028066635132,0.0020519495010375977,0.024966120719909668,0.8357127225153739,-0.035788458393170186,-0.547564663124536,0.021823855646232015
1714155283615967500,0.342967529296875,0.4426317811012268,0.03465932607650757,0.006445343606173992,-0.9135060906410217,0.08187417685985565,-0.3985011875629425,-0.01483851671218872,-0.006221115589141846,0.033785462379455566,0.8358927425439867,-0.03384337142050947,-0.5473609677776459,0.02310661920245588
1714155283625956600,0.35295654296875,0.37528538703918457,0.018193800002336502,0.004570345394313335,-0.9134041666984558,0.08024223893880844,-0.39906635880470276,-0.011949777603149414,-0.019085049629211426,0.038272202014923096,0.8360299346971513,-0.03213097629994302,-0.5472060098989251,0.024229741859486842
1714155283635946500,0.362946533203125,0.3043230473995209,-0.0007074524182826281,0.0015708270948380232,-0.9133739471435547,0.07887953519821167,-0.39940714836120605,-0.005815446376800537,-0.03702467679977417,0.040810227394104004,0.8361042120437883,-0.03070313514044179,-0.5471322947173942,0.025165298074627418
1714155283645935600,0.372935546875,0.23317021131515503,-0.03256205469369888,-0.0025096682365983725,-0.9134505987167358,0.07775834202766418,-0.3994515538215637,-0.00013875961303710938,-0.04870563745498657,0.04466933012008667,0.8360952070385386,-0.02955448220086443,-0.5471752475329223,0.02589446233041548
1714155283655925500,0.382925537109375,0.16230615973472595,-0.047731418162584305,-0.008668228052556515,-0.9136265516281128,0.07686477154493332,-0.39922207593917847,0.0013189315795898438,-0.050863802433013916,0.043081820011138916,0.8360109760704202,-0.028691390526320443,-0.547326009380629,0.026393902873539044
1714155283665914600,0.39291455078125,0.10751865804195404,-0.059652794152498245,-0.0203021802008152,-0.9138636589050293,0.07616519182920456,-0.39881324768066406,0.003982186317443848,-0.046273261308670044,0.04328334331512451,0.8358796543942454,-0.028083342575402237,-0.5475442461704385,0.026679673248985514
1714155283675903500,0.402903564453125,0.05577236786484718,-0.07471244037151337,-0.024848463013768196,-0.9141538739204407,0.07558974623680115,-0.39825716614723206,0.0021819472312927246,-0.03712233901023865,0.04365801811218262,0.8357092718274804,-0.027653564833594907,-0.5478199560588979,0.026805399252662176
1714155283685893600,0.4128935546875,0.007672534789890051,-0.08605777472257614,-0.03619293123483658,-0.9145143628120422,0.07515532523393631,-0.39751142263412476,-0.0029660463333129883,-0.030111372470855713,0.032368481159210205,0.8354874546186767,-0.027414105702630837,-0.5481721944761695,0.02676808671723263
1714155283695882500,0.422882568359375,-0.03691703826189041,-0.09072576463222504,-0.0441371388733387,-0.9149060249328613,0.07480884343385696,-0.39667436480522156,0.0002180337905883789,-0.03170275688171387,0.021979451179504395,0.8352435189900725,-0.027338684310022565,-0.5485575691331912,0.02656050064791121
1714155283705872600,0.43287255859375,-0.07998605072498322,-0.09315616637468338,-0.048646602779626846,-0.9153112173080444,0.07457917928695679,-0.39578157663345337,0.00015026330947875977,-0.039438195526599884,0.018370628356933594,0.8349873210773565,-0.027430492003666845,-0.5489597268891292,0.026204976611534092
1714155283715861500,0.442861572265625,-0.10574627667665482,-0.09215667843818665,-0.05257822573184967,-0.9157233238220215,0.074448361992836,-0.3948518931865692,-0.0043357014656066895,-0.03305128961801529,0.014541774988174438,0.8347233355584229,-0.027651440130242316,-0.549371871261396,0.02574372371511857
1714155283725851600,0.4528515625,-0.1213364228606224,-0.0876050665974617,-0.04944555088877678,-0.9161245226860046,0.07439424842596054,-0.39393049478530884,-0.0040108561515808105,-0.020393438637256622,0.009546250104904175,0.8344634508641174,-0.027962682237240605,-0.549775261227262,0.02521628208097837
1714155283735840500,0.462840576171875,-0.11769667267799377,-0.079539954662323,-0.04838161915540695,-0.9164992570877075,0.07437091320753098,-0.39306244254112244,-0.004292309284210205,-0.015533030033111572,0.0054891109466552734,0.8342196974249878,-0.028304788559265492,-0.5501523644476733,0.024671424842595158
1714155283745830700,0.47283056640625,-0.09249944984912872,-0.07733938097953796,-0.04689117893576622,-0.9169302582740784,0.07397015392780304,-0.3921315670013428,-0.00779801607131958,-0.008342117071151733,0.0028187036514282227,0.8339579435065854,-0.028451653872440974,-0.5505676355893695,0.024079862719516065
1714155283755819500,0.482819580078125,-0.06512508541345596,-0.06547446548938751,-0.04287540167570114,-0.9173464179039001,0.07348185777664185,-0.391248881816864,-0.007992088794708252,0.0032240673899650574,0.0013715028762817383,0.8337074990251712,-0.028485967436262694,-0.5509665201829885,0.023580312774696188
1714155283765809400,0.492809326171875,-0.03200851380825043,-0.04844195023179054,-0.04286228492856026,-0.9176745414733887,0.0729866772890091,-0.3905717134475708,-0.007297873497009277,0.014583498239517212,-0.00125885009765625,0.8335153065766103,-0.02844249136607435,-0.5512759483920864,0.023193624417232883
1714155283775798500,0.502798583984375,-0.0009139757603406906,-0.03325740620493889,-0.03517507016658783,-0.9179116487503052,0.07238359749317169,-0.39012661576271057,-0.009151220321655273,0.026111871004104614,-0.005274534225463867,0.8333899826278339,-0.02827313588517258,-0.5514864705489122,0.02290038303461467
1714155283785788400,0.512788330078125,0.019491005688905716,-0.026681795716285706,-0.0329924114048481,-0.918095588684082,0.07172952592372894,-0.3898146152496338,-0.011866569519042969,0.02070821076631546,-0.008729875087738037,0.8333017753692777,-0.028008476588553405,-0.5516413886501894,0.02270542099720607
1714155283795777500,0.522777587890625,0.04069668799638748,-0.005543486215174198,-0.025098001584410667,-0.9182115197181702,0.07111362367868423,-0.3896543085575104,-0.009080290794372559,0.009178102016448975,-0.011850357055664062,0.8332564550839594,-0.02770724688524362,-0.5517292445894171,0.02260088654980119
1714155283805766400,0.532766357421875,0.057495538145303726,-0.007682004943490028,-0.023292111232876778,-0.918276846408844,0.07054146379232407,-0.3896044194698334,-0.0051239728927612305,0.00854480266571045,-0.011640787124633789,0.8332417342614119,-0.02736829134456714,-0.5517687575915082,0.022593396097402352
1714155283815755300,0.54275537109375,0.0675140842795372,-0.017657140269875526,-0.02113175578415394,-0.9183521270751953,0.0700097605586052,-0.3895229399204254,-0.003232896327972412,0.012326657772064209,-0.011340796947479248,0.8332158010730115,-0.027011844366964327,-0.5518232364219654,0.022648894040146084
1714155283825744400,0.552744384765625,0.07389427721500397,-0.024021297693252563,-0.02016296423971653,-0.9184547066688538,0.06951411813497543,-0.38936951756477356,0.0025307536125183105,0.00752750039100647,-0.008747696876525879,0.8331668304320003,-0.026644632017468917,-0.5519105976395415,0.022753025111179548
1714155283835734300,0.562734375,0.06943400949239731,-0.02665170095860958,-0.017713388428092003,-0.9185677170753479,0.069121353328228,-0.3891727924346924,0.003650844097137451,0.0014963075518608093,-0.0003384053707122803,0.8331039261373472,-0.026314281738925277,-0.5520155458421414,0.022894543670018197
1714155283845723400,0.572723388671875,0.06781843304634094,-0.036295272409915924,-0.021997349336743355,-0.9186900854110718,0.06883809715509415,-0.38893434405326843,-0.0009265542030334473,0.0026340484619140625,0.007342398166656494,0.833027919847527,-0.026034866103239213,-0.5521367718136603,0.023058197179680162
1714155283855713300,0.58271337890625,0.05827472731471062,-0.03813285380601883,-0.026456546038389206,-0.9188293218612671,0.06865840405225754,-0.38863712549209595,0.0005401372909545898,0.002523846924304962,0.007319808006286621,0.8329344596290693,-0.025823836773643666,-0.5522812424372592,0.023212159382041853
1714155283865702400,0.592702392578125,0.04671495407819748,-0.038652971386909485,-0.03239459544420242,-0.918976902961731,0.06842472404241562,-0.3883289098739624,0.0002300739288330078,-0.0056195855140686035,0.0055162906646728516,0.8328389441769567,-0.025613545617543865,-0.5524305268968084,0.023315876380407607
1714155283875692300,0.6026923828125,0.035030070692300797,-0.0367693156003952,-0.031871818006038666,-0.9191173911094666,0.06807032227516174,-0.3880588412284851,-0.003032207489013672,-0.00981229543685913,0.005688726902008057,0.8327576730237805,-0.025393254843467716,-0.552562907487325,0.02332537047181582
1714155283885681400,0.612681396484375,0.022948747500777245,-0.03951317071914673,-0.03191642463207245,-0.9192540049552917,0.06777561455965042,-0.38778647780418396,-0.005031764507293701,-0.008861452341079712,0.003829479217529297,0.8326760813678201,-0.02522157465160149,-0.5526939794533506,0.02331562626432815
1714155283895671300,0.62267138671875,0.011663868092000484,-0.040819451212882996,-0.027868688106536865,-0.9193936586380005,0.06757817417383194,-0.387489914894104,-0.004388570785522461,-0.008618243038654327,0.003761798143386841,0.8325879394363561,-0.025121918352102285,-0.5528326486871313,0.023285309713451496
1714155283905660400,0.632660400390625,-0.00017404276877641678,-0.039261236786842346,-0.024762175977230072,-0.9195374250411987,0.0674203410744667,-0.38717612624168396,-0.0016202926635742188,-0.008262008428573608,0.005431652069091797,0.8324954455714594,-0.02506715743249119,-0.5529770071648401,0.023223166905519455
1714155283915649500,0.6426494140625,-0.0012992285192012787,-0.04265144094824791,-0.01777537353336811,-0.9197036027908325,0.06726749986410141,-0.38680776953697205,-0.0002639293670654297,-0.002753347158432007,0.007443606853485107,0.832387123329243,-0.02502938985921138,-0.5531452304291471,0.023139688471758568
1714155283925639400,0.652639404296875,-0.0036500003188848495,-0.049943707883358,-0.01940356194972992,-0.9198973774909973,0.06716921925544739,-0.3863637447357178,-0.0037322044372558594,0.0028991401195526123,0.010203957557678223,0.8322553186036097,-0.02500621770898634,-0.5533469291650989,0.0230832622940082
1714155283935628300,0.662628173828125,-0.01457188930362463,-0.048343412578105927,-0.012991204857826233,-0.9201065301895142,0.06709276884794235,-0.3858789801597595,-0.00269925594329834,0.004760868847370148,0.009444475173950195,0.8321119672866868,-0.025011270959510667,-0.5535656639532651,0.023003968612610726
1714155283945618400,0.672618408203125,-0.025187678635120392,-0.043393928557634354,-0.011144036427140236,-0.9203048348426819,0.06700525432825089,-0.3854207694530487,0.00018477439880371094,0.0034445524215698242,0.008940577507019043,0.8319775832313785,-0.02503784016200558,-0.5537713634284007,0.022882559608545905
1714155283955607300,0.682607177734375,-0.04436403512954712,-0.04801424592733383,-0.014932116493582726,-0.9205026030540466,0.06693091243505478,-0.3849612772464752,0.00004678964614868164,0.00013145804405212402,0.008908271789550781,0.83184419881401,-0.025104657887048798,-0.5539757332028745,0.022712711538190544
1714155283965597400,0.692597412109375,-0.05585818365216255,-0.04938364401459694,-0.005128420889377594,-0.9207121729850769,0.06696067005395889,-0.3844544291496277,0.0005005002021789551,-0.002354957163333893,0.0072265565395355225,0.8316972294890681,-0.025254663665258775,-0.5541976106503932,0.022512007266101863
1714155283975586300,0.70258642578125,-0.08126633614301682,-0.058318283408880234,-0.007113275118172169,-0.9209320545196533,0.06709621846675873,-0.38390377163887024,0.0047029852867126465,-0.009280689060688019,0.0062028467655181885,0.8315379580787197,-0.02548923893734084,-0.5544352237586796,0.022280043433645758
1714155283985576400,0.712576416015625,-0.10046804696321487,-0.06545822322368622,-0.0047860718332231045,-0.9211835265159607,0.06730018556118011,-0.3832642734050751,0.006739675998687744,-0.009759314358234406,0.004464775323867798,0.8313535440168573,-0.025807179002133,-0.554708804133466,0.021984874031571233
1714155283995565300,0.7225654296875,-0.11757460236549377,-0.08097832649946213,-0.009258851408958435,-0.9214759469032288,0.06763105094432831,-0.38250216841697693,0.004407644271850586,-0.005420990288257599,0.005518496036529541,0.8311329299809341,-0.02622489541666151,-0.555032584558586,0.021654859340087262
1714155284005555500,0.732555419921875,-0.13377520442008972,-0.08504923433065414,-0.006618792656809092,-0.9218074679374695,0.06806051731109619,-0.3816262483596802,0.002343475818634033,-0.008825935423374176,0.006031066179275513,0.8308788640207088,-0.02672520483019275,-0.5554031334580682,0.021290569862915276
1714155284015544300,0.74254443359375,-0.13808418810367584,-0.08028457313776016,-0.008047046139836311,-0.9221397042274475,0.0685528889298439,-0.38073447346687317,0.00035643577575683594,-0.007838167250156403,0.005597054958343506,0.830620508465519,-0.02728346961640446,-0.5557772729907793,0.02089728152374687
1714155284025534500,0.752534423828125,-0.13161297142505646,-0.07533269375562668,-0.014350615441799164,-0.9224485158920288,0.0689849928021431,-0.3799074590206146,-0.0016999244689941406,-0.005706794559955597,0.0037782490253448486,0.8303816994986066,-0.02781568587837066,-0.5561227900503992,0.020489829575021545
1714155284035523300,0.7625234375,-0.12402057647705078,-0.07082795351743698,-0.014003871940076351,-0.9227445125579834,0.06930501759052277,-0.37912943959236145,-0.004669249057769775,-0.002898760139942169,-0.0024014413356781006,0.8301574092832726,-0.028282249015960187,-0.5564489194370682,0.020080532083213587
1714155284045512400,0.772512451171875,-0.11672478914260864,-0.05769244208931923,-0.02284570038318634,-0.923005998134613,0.06953196227550507,-0.37845081090927124,-0.006635546684265137,0.0005974099040031433,-0.008237510919570923,0.8299631321619467,-0.028702973353009698,-0.5567321980093474,0.01965679592240166
1714155284055502300,0.78250244140625,-0.12164124101400375,-0.045816339552402496,-0.022996168583631516,-0.9232242107391357,0.06964553147554398,-0.3778972923755646,-0.007424414157867432,0.0048173293471336365,-0.009950727224349976,0.8298070193514173,-0.029074597654428436,-0.5569614171494248,0.019205032914888343
1714155284065491500,0.792491455078125,-0.1223764419555664,-0.03770514950156212,-0.022016990929841995,-0.9234001040458679,0.0697767361998558,-0.3774429261684418,-0.007080674171447754,0.007478497922420502,-0.008421391248703003,0.8296805231913502,-0.02946061431803315,-0.5571450454675636,0.01874820586129472
1714155284075481300,0.8024814453125,-0.12262916564941406,-0.029437366873025894,-0.020585007965564728,-0.9235421419143677,0.06996948271989822,-0.3770597279071808,-0.0067403316497802734,0.005836158990859985,-0.008621513843536377,0.8295748579689575,-0.029871016310166504,-0.5572951257686282,0.018310762061734875
1714155284085470500,0.812470458984375,-0.11640205979347229,-0.025634638965129852,-0.021831568330526352,-0.9236729145050049,0.07012879103422165,-0.3767097294330597,-0.004976868629455566,0.004730820655822754,-0.00837641954421997,0.8294790927061141,-0.03026477291087623,-0.5574308681808146,0.017868405266976528
1714155284095460400,0.82246044921875,-0.11065016686916351,-0.02074694074690342,-0.02392055094242096,-0.9237843751907349,0.07026037573814392,-0.37641167640686035,-0.003156423568725586,0.008047729730606079,-0.007408022880554199,0.8293983873902273,-0.030634227480137444,-0.5575443529034674,0.017437550452922224
1714155284105449500,0.832449462890625,-0.09736285358667374,-0.02587112784385681,-0.019800640642642975,-0.9238892197608948,0.07038547098636627,-0.3761308789253235,-0.002212345600128174,0.008655041456222534,-0.0073378682136535645,0.8293221474204595,-0.030982778735834077,-0.5576509867399747,0.017032210660340996
1714155284115439400,0.842439453125,-0.07703947275876999,-0.040514253079891205,-0.020992137491703033,-0.9240233302116394,0.07048263400793076,-0.37578311562538147,0.0005158185958862305,0.0058570802211761475,-0.008921623229980469,0.8292242008859614,-0.03126934326542319,-0.5577908849713087,0.01669446337105418
1714155284125428500,0.852428466796875,-0.06404565274715424,-0.03832859545946121,-0.02016882225871086,-0.9241772890090942,0.07052928954362869,-0.375395804643631,0.005796670913696289,0.004788070917129517,-0.011185765266418457,0.8291130639261975,-0.03148584164827822,-0.5579522685684053,0.01641595901316817
1714155284135418400,0.86241845703125,-0.04613642022013664,-0.02110593393445015,-0.01751871034502983,-0.9242895841598511,0.0705791711807251,-0.3751097321510315,0.007816314697265625,0.008262962102890015,-0.011258184909820557,0.82903112807134,-0.03166610748864121,-0.5580702345816907,0.016194014158762926
1714155284145407500,0.872407470703125,-0.03698771819472313,-0.015423014760017395,-0.01299220323562622,-0.9243448972702026,0.07064072042703629,-0.3749620020389557,0.004178941249847412,0.009254276752471924,-0.01024627685546875,0.8289898808433749,-0.031816820233521836,-0.5581278440687627,0.016025963930623166
1714155284155397400,0.8823974609375,-0.030877891927957535,-0.008126219734549522,-0.017204524949193,-0.9243823885917664,0.07067063450813293,-0.37486356496810913,-0.0013986825942993164,0.011375866830348969,-0.012404590845108032,0.8289628168508796,-0.0319303683207611,-0.5581654553595626,0.01588459099439149
1714155284165386500,0.892386474609375,-0.02377641387283802,-0.011144380085170269,-0.015584524720907211,-0.9244092702865601,0.07065828889608383,-0.37479978799819946,-0.0015091896057128906,0.011861234903335571,-0.014284193515777588,0.8289462496229594,-0.03201510550452044,-0.558189166933214,0.01574796280716728
1714155284175375400,0.902375244140625,-0.008871767669916153,-0.023432739078998566,-0.009598003700375557,-0.9244648218154907,0.07066300511360168,-0.37466180324554443,-0.0008890628814697266,0.008881032466888428,-0.010866880416870117,0.8289059527924199,-0.03206634454184873,-0.5582480165408004,0.015676760545138835
1714155284185365500,0.912365478515625,-0.0030572344549000263,-0.02471371926367283,-0.003528793342411518,-0.9245395064353943,0.07069018483161926,-0.3744724690914154,0.0012607574462890625,0.007892578840255737,-0.005822420120239258,0.828849253796759,-0.03209664090187239,-0.5583310565696508,0.01565704854295813
1714155284195354400,0.922354248046875,0.006195119582116604,-0.020136544480919838,-0.0006150287808850408,-0.9246044158935547,0.07072342187166214,-0.3743056356906891,0.004362285137176514,0.01258956640958786,-0.004585474729537964,0.8287983875386074,-0.03210004871354713,-0.558405561985456,0.015682583215860413
1714155284205344500,0.932344482421875,0.008727146312594414,-0.019210029393434525,0.007633979432284832,-0.9246440529823303,0.07078532129526138,-0.3741961419582367,0.002921760082244873,0.015213221311569214,-0.0028944015502929688,0.8287643068872209,-0.032099276494865464,-0.5584546274482461,0.015739729066348906
1714155284215333400,0.94233349609375,0.019433587789535522,-0.022707559168338776,0.009894737042486668,-0.9246789216995239,0.07089508324861526,-0.37408918142318726,0.0017817020416259766,0.010739415884017944,-0.004069507122039795,0.8287301102990181,-0.03209668722776307,-0.5585026482717474,0.015842452224034964
1714155284225323500,0.952323486328125,0.029704440385103226,-0.01665126532316208,0.010957804508507252,-0.9247187376022339,0.07097023725509644,-0.37397652864456177,0.0023555755615234375,0.0063307881355285645,-0.003815948963165283,0.8286935896530605,-0.03205283920267796,-0.5585555899363128,0.015975375863933106
1714155284235312400,0.9623125,0.036325324326753616,-0.013554807752370834,0.013681950978934765,-0.9247397780418396,0.07105714827775955,-0.37390798330307007,0.0037041306495666504,0.005252033472061157,-0.006478488445281982,0.8286693140718546,-0.031981387838495606,-0.5585903735717205,0.016159569662668793
1714155284245302500,0.972302490234375,0.042076315730810165,-0.013762267306447029,0.011900629848241806,-0.9247482419013977,0.0711202546954155,-0.37387514114379883,0.0014237761497497559,0.0043039023876190186,-0.0026508569717407227,0.8286555785619725,-0.031886205412779395,-0.5586105021447548,0.016357453767805896
1714155284255291400,0.98229150390625,0.033595744520425797,-0.016371101140975952,0.018027231097221375,-0.924764096736908,0.07119997590780258,-0.37382054328918457,0.0016990303993225098,0.004712492227554321,-0.00012671947479248047,0.8286352696933981,-0.031807271264913256,-0.5586394382523021,0.01654619954047215
1714155284265281500,0.992281494140625,0.0313914455473423,-0.025097213685512543,0.024371080100536346,-0.9248000383377075,0.07134663313627243,-0.3737037777900696,0.0007736682891845703,0.006091713905334473,-0.0005486607551574707,0.8285960384366204,-0.03176023982338316,-0.5586943751131508,0.01674781318316798
1714155284275270400,1.0022705078125,0.019689783453941345,-0.017002003267407417,0.024253103882074356,-0.9248438477516174,0.07158634066581726,-0.37354958057403564,0.00013077259063720703,0.0025866329669952393,0.0005636215209960938,0.8285453325568306,-0.03176727278069563,-0.5587629702908062,0.016952705237217536
1714155284285260500,1.012260498046875,0.01184443011879921,-0.009556337259709835,0.019625861197710037,-0.9248648881912231,0.07185197621583939,-0.3734464943408966,-0.0027168989181518555,0.0007493272423744202,-0.0014163553714752197,0.828510847069931,-0.03181598833502075,-0.5588063165218099,0.017118806731081015
1714155284295249400,1.02224951171875,0.0004231976345181465,0.00468917703256011,0.015497428365051746,-0.9248508810997009,0.07208478450775146,-0.3734360635280609,-0.008910596370697021,-0.0017265379428863525,-0.00002288818359375,0.8285053002401687,-0.03188179722471146,-0.5588072231345138,0.017229830596542872
1714155284305238500,1.032238525390625,-0.022168291732668877,0.03978191688656807,0.004086981527507305,-0.9247469902038574,0.07226920127868652,-0.3736576735973358,-0.011593222618103027,-0.0010716915130615234,-0.0015712976455688477,0.8285717643343871,-0.03197841313490252,-0.5587025535987076,0.017251022364878965
1714155284315228400,1.042228515625,0.0050771781243383884,0.0673229917883873,-0.004048708826303482,-0.9245202541351318,0.07236455380916595,-0.3742000162601471,-0.019678235054016113,0.0025103092193603516,-0.006949424743652344,0.8287362920574162,-0.03206334405101896,-0.5584549572887381,0.017208586845953222
1714155284325217500,1.052217529296875,0.06544502079486847,0.07720918208360672,-0.01871154084801674,-0.9242667555809021,0.07212783396244049,-0.37487152218818665,-0.030094146728515625,0.0012516677379608154,-0.013144314289093018,0.8289374351266809,-0.031871655785094155,-0.5581652391938439,0.01727859341708432
1714155284335207400,1.06220751953125,0.09399863332509995,0.14449740946292877,-0.02045937441289425,-0.9238606691360474,0.07168533653020859,-0.3759555518627167,-0.036802053451538086,-0.0025325119495391846,-0.025579631328582764,0.8292614162887596,-0.03151140983958653,-0.5576999704695984,0.017413431526001166
1714155284345196500,1.072196533203125,0.056820958852767944,0.22066034376621246,-0.006571321748197079,-0.923187255859375,0.07124773412942886,-0.3776891231536865,-0.04394519329071045,0.013514846563339233,-0.03622090816497803,0.8297804827036602,-0.031134248621681793,-0.5569435299117373,0.017576783678390273
1714155284355186400,1.0821865234375,-0.10284753143787384,0.2722465693950653,0.002629899885505438,-0.9222905039787292,0.07153162360191345,-0.3798201084136963,-0.07049190998077393,0.02165379375219345,-0.058183521032333374,0.8304239135229947,-0.03135652466467942,-0.5559736689662576,0.017494721609334463
1714155284365175600,1.092175537109375,-0.31092318892478943,0.3582874536514282,0.07552681118249893,-0.921031653881073,0.07244506478309631,-0.382690966129303,-0.12158608436584473,0.00012573599815368652,-0.09489399194717407,0.8312980204930043,-0.03222942429700437,-0.5546312080036897,0.017002783835228463
1714155284375165400,1.10216552734375,-0.6185888648033142,0.3535134792327881,0.2205124944448471,-0.9195649027824402,0.07562138885259628,-0.38559260964393616,-0.17397135496139526,-0.03513983637094498,-0.1120118796825409,0.8321843559994582,-0.03460700062412567,-0.5531781405603851,0.016290033988506425
1714155284385154600,1.112154541015625,-0.8789944648742676,0.3738946318626404,0.3367246389389038,-0.9179352521896362,0.08102510869503021,-0.3883679509162903,-0.21765422821044922,-0.042679786682128906,-0.12820321321487427,0.8330362060545885,-0.03849031352350113,-0.5516652235213033,0.015314959911280512
1714155284395144400,1.12214453125,-1.0244123935699463,0.5212859511375427,0.4104025959968567,-0.9159042835235596,0.08811993896961212,-0.3916044235229492,-0.2634168267250061,-0.05508468300104141,-0.12069424986839294,0.8340273220351845,-0.0434925959836516,-0.5498237674867218,0.014160822556149644
1714155284405133600,1.132133544921875,-1.2664477825164795,0.47826552391052246,0.589513897895813,-0.913475751876831,0.0972350612282753,-0.39510419964790344,-0.3175727128982544,-0.07120358943939209,-0.133048415184021,0.8350949630939678,-0.04970608166059451,-0.5477017482568041,0.012978291991236235
1714155284415123500,1.14212353515625,-1.3133838176727295,0.5539983510971069,0.7482998371124268,-0.9107583165168762,0.10844621807336807,-0.39844515919685364,-0.32827049493789673,-0.05139362812042236,-0.16451269388198853,0.8361077365586964,-0.05696034475667361,-0.5454658033137109,0.012096308979740678
1714155284425112600,1.152112548828125,-1.269853115081787,0.7442524433135986,0.8665054440498352,-0.907353937625885,0.12085599452257156,-0.4026196300983429,-0.34060126543045044,-0.03716156631708145,-0.19880566000938416,0.8373600601417914,-0.06455570367234265,-0.5426994968574618,0.01174062299637385
1714155284435101400,1.162101318359375,-1.3136767148971558,0.8807602524757385,1.009169578552246,-0.9027974009513855,0.13456577062606812,-0.40847134590148926,-0.4139750003814697,-0.005705296993255615,-0.2652195692062378,0.8391042010223725,-0.07259056180484016,-0.5389758230950646,0.01182213179412056
1714155284445091600,1.172091552734375,-1.365089774131775,0.9628694653511047,1.2873101234436035,-0.8973985910415649,0.150306835770607,-0.4148295223712921,-0.499802827835083,0.09680923819541931,-0.3124197721481323,0.8409836614197074,-0.08129042859705862,-0.5347682687090711,0.01269614242512962
1714155284455080400,1.18208056640625,-1.4865586757659912,0.975847601890564,1.573964238166809,-0.8910502791404724,0.16907502710819244,-0.4212397336959839,-0.573457658290863,0.14478297531604767,-0.3270666301250458,0.842857651144101,-0.09116807061972823,-0.5301589488922204,0.014516040040216283
1714155284465070600,1.192070556640625,-1.5517208576202393,1.1369999647140503,1.7474596500396729,-0.8836048245429993,0.19022491574287415,-0.4278513789176941,-0.6289529800415039,0.10654322803020477,-0.34035244584083557,0.8447695585915977,-0.10200777285165777,-0.5250416421492615,0.017026065496840048
1714155284475059500,1.2020595703125,-1.5165148973464966,1.3797639608383179,1.9406930208206177,-0.874476432800293,0.21297194063663483,-0.4358139634132385,-0.68101966381073,0.09491990506649017,-0.344459593296051,0.8470563984938404,-0.11342641774770293,-0.5188713333760393,0.02005776110291152
1714155284485049600,1.212049560546875,-1.3293322324752808,1.5211479663848877,2.2159974575042725,-0.8634220957756042,0.23723891377449036,-0.44521886110305786,-0.7280694246292114,0.13914960622787476,-0.3500845432281494,0.8497176964028927,-0.1249845953573839,-0.5116340737536827,0.024270931569143783
1714155284495038500,1.22203857421875,-1.2747232913970947,1.7073705196380615,2.588914394378662,-0.8501364588737488,0.26357147097587585,-0.4558487832546234,-0.7740852236747742,0.19454315304756165,-0.35376739501953125,0.8526526308592984,-0.1367719083847847,-0.5033577749790462,0.030131256781084192
1714155284505028600,1.232028564453125,-1.1964093446731567,1.873557686805725,2.922492742538452,-0.8341642022132874,0.2925335764884949,-0.46754053235054016,-0.8275787830352783,0.18854552507400513,-0.3492625951766968,0.8557808333516295,-0.1492486356316121,-0.49391758450455603,0.03754202107257848
1714155284515017500,1.242017578125,-1.057342290878296,2.0581369400024414,3.1600050926208496,-0.815542459487915,0.32296332716941833,-0.4801929295063019,-0.8808075785636902,0.18803825974464417,-0.3317273259162903,0.8590415745147738,-0.16192227583408814,-0.48340946989853983,0.046303790527171984
1714155284525007400,1.25200732421875,-0.9465513825416565,2.315065622329712,3.3857929706573486,-0.7937927842140198,0.3541419208049774,-0.49444547295570374,-0.9076688289642334,0.2668296992778778,-0.31846657395362854,0.8625942131395077,-0.1745812991468459,-0.4714855576350058,0.05615898164163735
1714155284534996500,1.26199658203125,-0.8440902829170227,2.5324008464813232,3.6503405570983887,-0.7686420679092407,0.3860883414745331,-0.5100246667861938,-0.9332468509674072,0.3812609016895294,-0.3285069465637207,0.8663222556522038,-0.1873651139430527,-0.4581287971538116,0.06706759563607295
1714155284544986400,1.271986328125,-0.9219564199447632,2.796937942504883,3.845108985900879,-0.7397676110267639,0.4187939465045929,-0.5266454815864563,-0.9885953068733215,0.43220391869544983,-0.36701613664627075,0.8701236238342114,-0.20051678656995153,-0.4432496918997185,0.07878759216283177
1714155284554975500,1.2819755859375,-1.2513585090637207,2.966280698776245,4.005887985229492,-0.7071941494941711,0.4529721438884735,-0.542855978012085,-1.035801887512207,0.3970796763896942,-0.3895323872566223,0.873626440945737,-0.21497196927873502,-0.4270352009982267,0.09058004618674609
1714155284564964600,1.291964599609375,-1.7048507928848267,2.952669858932495,4.1575727462768555,-0.6717022061347961,0.4892028868198395,-0.556324303150177,-1.016423225402832,0.35997921228408813,-0.3756062984466553,0.8762147404450593,-0.2313872041295428,-0.4102411478934025,0.10202916066857942
1714155284574954500,1.30195458984375,-2.153092861175537,3.0181479454040527,4.322491645812988,-0.6334601044654846,0.5276477336883545,-0.5659648180007935,-0.9263542890548706,0.3155529499053955,-0.3486471176147461,0.8775939647951245,-0.24991688721434685,-0.39314008713154036,0.1131869146249515
1714155284584943600,1.311943603515625,-2.7637031078338623,3.047532558441162,4.452279567718506,-0.592189371585846,0.568388044834137,-0.5711801648139954,-0.8177836537361145,0.25406068563461304,-0.2793905735015869,0.8776520261133092,-0.2708514274501152,-0.37556545977444766,0.12376193672698049
1714155284594933500,1.32193359375,-3.4738922119140625,2.895871877670288,4.597114562988281,-0.5484821200370789,0.6120128035545349,-0.5697434544563293,-0.7310587763786316,0.13803285360336304,-0.17389369010925293,0.875790434001171,-0.2947549846301498,-0.35811699824187765,0.13365132206571184
1714155284604922600,1.331922607421875,-4.076364517211914,2.6400136947631836,4.728367328643799,-0.5032548308372498,0.6578466892242432,-0.5603322386741638,-0.6099042296409607,-0.027445197105407715,-0.06890976428985596,0.8715954271039876,-0.32130541833857396,-0.3414626106948562,0.14313434084942167
1714155284614912500,1.34191259765625,-4.688797950744629,2.2977936267852783,4.806844234466553,-0.45706748962402344,0.7049171924591064,-0.5423844456672668,-0.4573306143283844,-0.2090219259262085,0.01862645149230957,0.864845285516184,-0.35009041407286035,-0.32595166176297885,0.15242922319257057
1714155284624901600,1.351901611328125,-5.1329193115234375,1.8286402225494385,4.803737163543701,-0.41143450140953064,0.7518491744995117,-0.5152127742767334,-0.2968173325061798,-0.33261406421661377,0.0529477596282959,0.8553176796448586,-0.38059340200913194,-0.3123175635936313,0.16136246096917617
1714155284634891500,1.3618916015625,-5.029446125030518,1.5623438358306885,4.996181011199951,-0.36511674523353577,0.7963706851005554,-0.4821653962135315,-0.16660618782043457,-0.3669884204864502,0.08333110809326172,0.8437112081258631,-0.4112086995481266,-0.2997076926533416,0.17097976928426362
1714155284644880600,1.371880615234375,-4.415175914764404,1.3723009824752808,5.1786298751831055,-0.3168332874774933,0.8357673287391663,-0.4484523832798004,-0.08155834674835205,-0.41444170475006104,0.10337477922439575,0.8312861153633758,-0.4398082300058075,-0.2869538889236395,0.1821797231975289
1714155284654870500,1.38187060546875,-3.6764140129089355,1.2104382514953613,5.146983623504639,-0.2670231759548187,0.8684333562850952,-0.41775813698768616,-0.017949849367141724,-0.38012176752090454,0.07702931761741638,0.8190577688473761,-0.4649798213400119,-0.2737054823967692,0.19499557505479698
1714155284664859600,1.391859619140625,-2.6728124618530273,1.1575074195861816,4.910621643066406,-0.21805427968502045,0.8935675621032715,-0.39241448044776917,0.02265031635761261,-0.27583086490631104,0.06488451361656189,0.8079586807278964,-0.4858712915196475,-0.26023422146373176,0.2083501603259933
1714155284674849500,1.401849609375,-1.5971496105194092,1.2151474952697754,4.745265007019043,-0.1699627786874771,0.9110345244407654,-0.3756709098815918,0.013087287545204163,-0.16565805673599243,0.07293644547462463,0.7990550239942982,-0.5017269493231894,-0.24583453496532412,0.22214061501476284
1714155284684838700,1.411838623046875,-0.7780665159225464,1.2630287408828735,4.6528472900390625,-0.122578926384449,0.9223478436470032,-0.3663995862007141,-0.03174837678670883,-0.2092742919921875,0.03270503878593445,0.7920826861258683,-0.5134801452943067,-0.23051755107632238,0.23623015906567102
1714155284694827500,1.42182763671875,-0.18305455148220062,1.3100903034210205,4.588741779327393,-0.0751185417175293,0.928587794303894,-0.36343032121658325,-0.04837077111005783,-0.32049471139907837,0.004787713289260864,0.7866980428217007,-0.5219853305981519,-0.214047081483965,0.2506414314392118
1714155284704817400,1.4318173828125,0.19885267317295074,1.3042094707489014,4.504603862762451,-0.028198739513754845,0.9308717250823975,-0.3642561733722687,-0.07556098699569702,-0.4571627378463745,0.03832828998565674,0.7822362492604813,-0.5282648068699848,-0.19699800080084579,0.2650178581982702
1714155284714806500,1.441806640625,0.3237248361110687,1.2183843851089478,4.423381328582764,0.017900895327329636,0.9300841689109802,-0.3669098913669586,-0.10228195786476135,-0.6274109482765198,0.06972962617874146,0.77809521846086,-0.5330961008768579,-0.17987106234984201,0.2793253617792136
1714155284724796400,1.45179638671875,0.06735572963953018,1.0909970998764038,4.555359840393066,0.06404935568571091,0.927341103553772,-0.36869511008262634,-0.08750206232070923,-0.8020665645599365,0.16524958610534668,0.773352183529237,-0.5377195909892635,-0.16281919015826465,0.2937241929109622
1714155284734785500,1.46178564453125,-0.38576540350914,0.5961807370185852,3.859189748764038,0.1067412719130516,0.9243013262748718,-0.3664330840110779,-0.016851723194122314,-0.8788150548934937,0.2339104413986206,0.7671369465506982,-0.542958673204046,-0.14825428234073282,0.3077618656017654
1714155284744775400,1.471775390625,-0.26489752531051636,0.1974378526210785,3.0821261405944824,0.13963033258914948,0.9215232133865356,-0.3623508810997009,0.06567670404911041,-0.7839500904083252,0.34034767746925354,0.7609658253690628,-0.5474840791404373,-0.1381511554781467,0.31954075684004
1714155284754764500,1.4817646484375,0.2648744583129883,0.13990238308906555,2.921022891998291,0.16763129830360413,0.9168819785118103,-0.36225268244743347,0.06108270585536957,-0.6436582207679749,0.4477781355381012,0.7562442420202291,-0.5496679493870438,-0.12937852731058663,0.3304857279530169
1714155284764754400,1.49175439453125,0.7714948654174805,0.28398633003234863,2.596249580383301,0.1936933696269989,0.9100516438484192,-0.36645445227622986,0.037126362323760986,-0.7092002630233765,0.4506981372833252,0.7531256024836982,-0.5498617683952232,-0.12010334685375923,0.3406303211240638
1714155284774743600,1.50174365234375,1.24507474899292,0.3606638014316559,2.198047399520874,0.21660666167736053,0.9013485908508301,-0.37503647804260254,-0.032997578382492065,-0.8117489814758301,0.4984036087989807,0.751977646430196,-0.5479609131308353,-0.11054684869645576,0.34935355212691904
1714155284784733400,1.5117333984375,1.5726361274719238,0.38740646839141846,1.7845979928970337,0.2359018474817276,0.8914015889167786,-0.3869798183441162,-0.1375741958618164,-0.8658280372619629,0.5127732157707214,0.7525800543081935,-0.5443172701137959,-0.10113749857461768,0.3565291826588878
1714155284794722600,1.52172265625,1.4049783945083618,0.20130956172943115,1.3742743730545044,0.25118327140808105,0.8815683722496033,-0.39968010783195496,-0.07648539543151855,-0.940467357635498,0.4134587049484253,0.7539903143983768,-0.5399265947966607,-0.09294735661682182,0.36240675258908533
1714155284804712400,1.53171240234375,0.8598272800445557,-0.10786480456590652,1.0989340543746948,0.26194676756858826,0.8738463521003723,-0.4096052944660187,-0.005141317844390869,-1.1217710971832275,0.36224186420440674,0.7549136944587246,-0.5362431113361107,-0.08741100847781799,0.36729823491081537
1714155284814701000,1.541701171875,0.4802709221839905,-0.49295151233673096,0.7780447006225586,0.26909229159355164,0.8686656355857849,-0.41594380140304565,0.04873305559158325,-1.2743358612060547,0.350742906332016,0.7546985613638685,-0.5337002928070209,-0.08480626187215226,0.3720239795973451
1714155284824690000,1.55168994140625,0.6377684473991394,-0.6608456969261169,0.39293235540390015,0.2714903652667999,0.8649168014526367,-0.42215150594711304,0.09456801414489746,-1.1981841325759888,0.38278377056121826,0.7547841242102244,-0.5308197397248946,-0.08458515083369453,0.37600092667747315
1714155284834680000,1.56168017578125,0.9917775988578796,-0.5920903086662292,0.3347308337688446,0.2717761695384979,0.8604650497436523,-0.4309726655483246,0.09530451893806458,-0.7991859316825867,0.4837680160999298,0.7560452582796462,-0.5266628416014458,-0.08449804886545736,0.37931751628437804
1714155284844669000,1.5716689453125,1.1323262453079224,-0.6376466155052185,0.30173709988594055,0.2718343138694763,0.8549065589904785,-0.4418606460094452,0.07823282480239868,-0.39186346530914307,0.555080771446228,0.7579997586321197,-0.5215601811365844,-0.08393243417788054,0.38257891038481284
1714155284854659000,1.5816591796875,0.958179235458374,-0.7073934674263,0.2782626748085022,0.2712526321411133,0.849369466304779,-0.4527619481086731,0.0966215431690216,-0.19783461093902588,0.5824463367462158,0.7599329489823643,-0.5163459221717209,-0.08370136053535102,0.38585321965092917
1714155284864648000,1.59164794921875,0.5738739371299744,-0.7873618006706238,0.3490723967552185,0.27037137746810913,0.8450251817703247,-0.4613366425037384,0.12950047850608826,-0.1816343069076538,0.510225772857666,0.7610146740540321,-0.5120805344047128,-0.08429236258022602,0.38926184717493767
1714155284874638000,1.60163818359375,0.14282241463661194,-0.8369680047035217,0.4835716187953949,0.2700560390949249,0.8422490358352661,-0.46656864881515503,0.15267351269721985,-0.2316533327102661,0.3820348381996155,0.7607820072136795,-0.5092947869474971,-0.08564169704463284,0.3930585759316206
1714155284884627000,1.611626953125,-0.15495814383029938,-0.8880738019943237,0.5549168586730957,0.27030545473098755,0.84092116355896,-0.4688138961791992,0.17577001452445984,-0.2898958921432495,0.31585967540740967,0.7593608370527701,-0.5078461434816941,-0.08766614445706061,0.3972127472325391
1714155284894617000,1.6216171875,-0.2741753160953522,-0.9109471440315247,0.6033576726913452,0.2708336114883423,0.8404437303543091,-0.4693649113178253,0.2089637815952301,-0.28827404975891113,0.30168598890304565,0.7572590016913046,-0.5071486728908705,-0.09009862147789754,0.40154850756178234
1714155284904606000,1.63160595703125,-0.21397672593593597,-0.9210418462753296,0.7189968824386597,0.2720733880996704,0.8398202657699585,-0.46976375579833984,0.2531799376010895,-0.15978193283081055,0.2846134901046753,0.7548886865059312,-0.5065412088531782,-0.09238032424858528,0.40623259687678626
1714155284914596000,1.64159619140625,-0.05734742432832718,-0.9754531979560852,0.7530786991119385,0.2737571895122528,0.8384767174720764,-0.4711833894252777,0.3334663212299347,-0.11443197727203369,0.24227094650268555,0.7525892512183521,-0.505467943756287,-0.0943952815295418,0.41134057592166834
1714155284924585000,1.6515849609375,0.2536565363407135,-0.9856640100479126,0.8300866484642029,0.2756713032722473,0.8358815908432007,-0.4746655523777008,0.4494111239910126,-0.16051232814788818,0.17217516899108887,0.7507334204362862,-0.5034546692445009,-0.09591988209470273,0.41681191989288224
1714155284934575000,1.6615751953125,0.4783569276332855,-0.9706459045410156,0.9631012082099915,0.2784166932106018,0.8316386938095093,-0.4804801046848297,0.572077751159668,-0.17030763626098633,0.09197598695755005,0.7493346589576566,-0.5004342827068413,-0.09656847024771933,0.42277368086580736
1714155284944564000,1.67156396484375,0.573878288269043,-0.9782532453536987,1.205711841583252,0.2826072871685028,0.8260132670402527,-0.48768338561058044,0.6986701488494873,-0.20096760988235474,-0.0023527145385742188,0.7479285852580506,-0.4968600080897678,-0.09637657402763755,0.42946993262059163
1714155284954552800,1.681552734375,0.4274635314941406,-1.0452226400375366,1.5844407081604004,0.28903576731681824,0.8195436596870422,-0.49477899074554443,0.8735466003417969,-0.23542219400405884,-0.04028579592704773,0.7457121543268941,-0.49342601127280794,-0.09561003198170573,0.4373815876687315
1714155284964543000,1.69154296875,0.2974715530872345,-1.2061513662338257,2.0017294883728027,0.2982042133808136,0.8125109672546387,-0.5008991360664368,1.1368238925933838,-0.299113929271698,-0.0038310885429382324,0.7420615967351685,-0.4905230665614544,-0.09453857699717652,0.4469831662767024
1714155284974531800,1.70153173828125,0.26217374205589294,-1.4135173559188843,2.5624582767486572,0.309813529253006,0.8043135404586792,-0.507045567035675,1.4853830337524414,-0.318885862827301,0.08353781700134277,0.7370253276431571,-0.4876301448314466,-0.09324193808639325,0.4586025649657249
1714155284984522000,1.71152197265625,0.40701642632484436,-1.7256970405578613,3.429835557937622,0.3255796730518341,0.7932140827178955,-0.5145962238311768,1.9102754592895508,-0.25747811794281006,0.2309199571609497,0.7301545840666415,-0.48416906481545474,-0.0910066632179993,0.47346843676425154
1714155284994510800,1.7215107421875,0.7714614868164062,-2.127990961074829,4.352577209472656,0.3462267220020294,0.7771185636520386,-0.5255605578422546,2.345057487487793,-0.0738714337348938,0.31651514768600464,0.7212674154914682,-0.47918516032774683,-0.08718550369642608,0.49249734065671547
1714155285004501000,1.7315009765625,1.2536331415176392,-2.382538080215454,5.1002631187438965,0.370217502117157,0.7547914385795593,-0.5415060520172119,2.7183291912078857,0.14422577619552612,0.21595978736877441,0.7108436132457597,-0.4718003965069973,-0.08155585111071209,0.5152225692825964
1714155285014489900,1.74148974609375,1.670562505722046,-2.386611223220825,5.72260046005249,0.39721187949180603,0.7258790135383606,-0.5615355968475342,2.8542375564575195,0.23891878128051758,-0.004794418811798096,0.6990101618663074,-0.46242587213137,-0.0734473771207074,0.5405112766515168
1714155285024479700,1.751479736328125,1.8537946939468384,-2.2793002128601074,6.106612205505371,0.42579543590545654,0.6913190484046936,-0.5837602615356445,2.7146615982055664,0.14084941148757935,-0.20612621307373047,0.6858655119176,-0.45181734095700105,-0.06309475173494886,0.5669818650212006
1714155285034468900,1.76146875,2.097616672515869,-2.099912405014038,6.18949031829834,0.4542461633682251,0.6526042222976685,-0.6064388751983643,2.4874651432037354,-0.10283017158508301,-0.13049966096878052,0.6717272843333502,-0.4406486873015448,-0.05108124012895213,0.5932974588722135
1714155285044458800,1.771458740234375,2.727625608444214,-1.9146027565002441,5.905195236206055,0.48024630546569824,0.6094940900802612,-0.6307776570320129,2.3824398517608643,-0.3854188919067383,0.26815247535705566,0.6580590854265982,-0.4280409670798998,-0.03731071809211414,0.6183422515694175
1714155285054447900,1.78144775390625,3.249217987060547,-2.796567678451538,6.34486722946167,0.5007710456848145,0.5606934428215027,-0.6594323515892029,2.4898905754089355,-0.7031344175338745,0.7898187041282654,0.6455384804886372,-0.41204976976960694,-0.022333766042948955,0.6426477107004929
1714155285064437800,1.791437744140625,3.9035632610321045,-3.292055606842041,5.993682861328125,0.5139269232749939,0.504945695400238,-0.6934759616851807,2.8558545112609863,-1.0085468292236328,1.3083136081695557,0.6316591755435711,-0.3914087111001162,-0.007824910286520353,0.6691372010794829
1714155285074427000,1.801427001953125,5.081560134887695,-3.804081439971924,3.903900623321533,0.5130211710929871,0.44725972414016724,-0.7326444983482361,3.414713144302368,-0.9645175337791443,1.8859189748764038,0.623232944839536,-0.3655690752033495,0.0060824458485154165,0.691305211022579
1714155285084416800,1.811416748046875,6.201478004455566,-6.04822301864624,2.2347874641418457,0.48773375153541565,0.3897510766983032,-0.7811592817306519,3.6671886444091797,-0.6879079341888428,2.282822370529175,0.6231736986579018,-0.33042085941674765,0.015569764668256825,0.7086847197404875
1714155285094406000,1.821406005859375,7.066253185272217,-6.649449348449707,1.6757878065109253,0.4429851472377777,0.32650259137153625,-0.8349611759185791,3.7275774478912354,-0.5867871046066284,2.2621920108795166,0.6266425676519899,-0.28638887411919567,0.022379183767060495,0.7244304751507554
1714155285104395000,1.83139501953125,7.250938415527344,-6.448631286621094,-0.924347460269928,0.3884587287902832,0.26224273443222046,-0.8833620548248291,3.713958263397217,-0.4966941177845001,2.067718744277954,0.6352516528311493,-0.2397599748951846,0.02888112157556877,0.733577746230578
1714155285114385000,1.841385009765625,6.9152398109436035,-7.308283805847168,-3.6147329807281494,0.3215753436088562,0.20657750964164734,-0.9240752458572388,3.063342809677124,-0.5849650502204895,1.5043363571166992,0.6524413115583796,-0.19245096244206372,0.03041409068968521,0.7323645507761557
1714155285124374000,1.8513740234375,5.301530838012695,-6.4289164543151855,-6.795734405517578,0.24423633515834808,0.16154052317142487,-0.9561659097671509,2.2512011528015137,-1.2257801294326782,1.0669447183609009,0.6773052088349514,-0.14590881767858765,0.025053035368580105,0.7206528998443946
1714155285134364000,1.861364013671875,4.784701824188232,-5.54083251953125,-10.763124465942383,0.17422007024288177,0.1336624175310135,-0.9755930304527283,1.537236213684082,-2.019068956375122,1.2467265129089355,0.7124085838257693,-0.10931374265118035,0.015937359489287192,0.6930155803662458
1714155285144353000,1.87135302734375,6.131659030914307,-7.189324378967285,-12.840922355651855,0.10024520009756088,0.09593451768159866,-0.9903269410133362,0.10094192624092102,-2.3542659282684326,1.244767189025879,0.7547834612069229,-0.06923356951502191,0.006575569335363445,0.6522770807727276
1714155285154343000,1.881343017578125,7.964309215545654,-9.463041305541992,-13.632891654968262,0.008550208061933517,0.032216161489486694,-0.9994443655014038,-2.3674674034118652,-2.666875123977661,0.1800168752670288,0.797953022341132,-0.015433483041022177,-0.006295360366723711,0.6024891314511145
1714155285164332000,1.89133203125,5.295568943023682,-10.359663009643555,-11.375317573547363,-0.0964723601937294,-0.039991073310375214,-0.9945319294929504,-4.265862941741943,-2.146090030670166,-1.3844201564788818,0.8342862828027291,0.04327457004515758,-0.029348545751770178,0.5488463846249301
1714155285174322000,1.901322021484375,0.09602983295917511,-0.5803777575492859,-11.722686767578125,-0.1371053159236908,-0.08610665798187256,-0.9868068695068359,-7.719202518463135,-1.1130053997039795,-2.581613540649414,0.8639516930991347,0.07173864903346518,-0.03808068004488212,0.4969816124853075
1714155285184311000,1.91131103515625,-7.837357521057129,3.645146131515503,-8.116212844848633,-0.11163291335105896,-0.059758078306913376,-0.9919511675834656,-15.511932373046875,-0.1097366064786911,-2.374213933944702,0.8886552047732632,0.05211186494688701,-0.03617712116088943,0.45416660116172963
1714155285194301000,1.921301025390625,-9.297608375549316,4.646351337432861,-2.654329538345337,-0.06897040456533432,0.0318509116768837,-0.99711012840271,-16.367523193359375,1.682245135307312,-1.29628586769104,0.9031130592549819,0.0003679499909740071,-0.038010551287930704,0.4277169162667626
1714155285204289800,1.931289794921875,-6.42475700378418,9.11373519897461,2.7589707374572754,-0.0002609289949759841,0.1002197191119194,-0.9949653148651123,-8.469144821166992,2.1192779541015625,1.6502997875213623,0.9027007005845767,-0.04529247355760059,-0.021585737351343334,0.42733359904966145
1714155285214280000,1.941280029296875,6.0215864181518555,1.117599368095398,5.650525093078613,0.06405031681060791,0.11038336902856827,-0.9918230772018433,-3.324655055999756,2.643049716949463,2.945161819458008,0.8932400450283882,-0.06381183049271068,0.00406192539685455,0.44500972949433204
1714155285224268800,1.951268798828125,14.913678169250488,-6.745628833770752,6.962218761444092,0.037803757935762405,-0.007731817662715912,-0.9992552995681763,0.676414430141449,5.918574810028076,-0.05505073070526123,0.8804833621899858,-0.00555171759621321,0.01848089274352635,0.47368403599988
1714155285234258000,1.9612578125,7.476714611053467,1.29757559299469,1.079097867012024,-0.002808889839798212,-0.12798453867435455,-0.9917721748352051,1.6454633474349976,6.735391139984131,0.15351533889770508,0.8685845813763102,0.05650525998272053,0.030349012802139783,0.4913724749521996
1714155285244247800,1.971247802734375,3.5013439655303955,7.841867446899414,-1.8436479568481445,0.04569711536169052,-0.1841585785150528,-0.9818336963653564,0.23419488966464996,2.2675936222076416,2.3719093799591064,0.869216268867683,0.06958366178999195,0.065125034652349,0.48515959871519904
1714155285254237000,1.98123681640625,-1.6334002017974854,0.4887402653694153,1.2166167497634888,0.07345035672187805,-0.19138185679912567,-0.9787635207176208,-3.9062750339508057,-3.4510741233825684,2.8374671936035156,0.8669964653488436,0.06575679726565749,0.07933652284568819,0.48754360661116813
1714155285264226800,1.991226806640625,-3.594815492630005,-1.2435964345932007,-3.8011600971221924,0.0729665458202362,-0.1623883694410324,-0.9840253591537476,-4.282332420349121,-7.940486431121826,2.485276699066162,0.8713139886171287,0.053569647981589696,0.07153751700136349,0.48251889606722154
1714155285274216000,2.0012158203125,-4.185389041900635,-2.523859739303589,-3.0876264572143555,0.05885723978281021,-0.11941239982843399,-0.9910986423492432,0.5045278072357178,-5.996554374694824,1.7912390232086182,0.8818724375634586,0.0390915938248531,0.0540604281273922,0.4667443760920651
1714155285284205800,2.011205810546875,-1.379699945449829,-0.5997613072395325,-0.9871141910552979,0.043266162276268005,-0.09023996442556381,-0.9949797987937927,0.6106035113334656,-1.8923956155776978,1.07733154296875,0.8871647078066522,0.030180985129424038,0.03999015022063802,0.45872488003625456
1714155285294195000,2.02119482421875,0.7047626376152039,0.38815346360206604,-0.33186793327331543,0.044710300862789154,-0.08679898083209991,-0.9952220320701599,-0.32315266132354736,0.27144554257392883,1.0387554168701172,0.8886246774486167,0.028439335334934618,0.039751479943521455,0.4560231525970877
1714155285304184800,2.031184814453125,2.5057435035705566,0.2717680037021637,0.895271360874176,0.04719318449497223,-0.10379155725240707,-0.9934787750244141,-0.689435601234436,1.5214855670928955,0.19420820474624634,0.8876834293141402,0.035401186200098696,0.04480356373689112,0.45689963637715336
1714155285314174000,2.041174072265625,2.2198386192321777,0.16151739656925201,1.2808963060379028,0.047291699796915054,-0.1285029500722885,-0.9905808568000793,-0.24966898560523987,2.4740686416625977,-0.3476911783218384,0.8844460460059691,0.046130033737449685,0.05080923550641865,0.4615686383976276
1714155285324163800,2.051163818359375,1.551178216934204,0.6733354330062866,1.2499879598617554,0.04918577894568443,-0.14761701226234436,-0.9878208041191101,0.30933475494384766,1.756229043006897,-0.07655596733093262,0.8809292677228817,0.05386889504503721,0.0564599961809861,0.46676982162562236
1714155285334153000,2.061153076171875,0.7352979183197021,0.814380407333374,0.8233663439750671,0.05503488704562187,-0.15950272977352142,-0.9856622219085693,0.059833306819200516,0.43622082471847534,0.07030278444290161,0.8778540218773101,0.05745061240921674,0.06219573630065194,0.4713846026790104
1714155285344142800,2.071142822265625,-0.03567557781934738,0.3600083887577057,0.13357719779014587,0.06015787646174431,-0.16295191645622253,-0.9847983121871948,-0.4054184556007385,-0.5509916543960571,0.08185946941375732,0.876434431610801,0.05760189456302112,0.06544363309025987,0.47356282223877666
1714155285354132000,2.081132080078125,-0.43589118123054504,-0.16640160977840424,-0.41733816266059875,0.06098024174571037,-0.16022293269634247,-0.9851953983306885,-0.3878234624862671,-1.0359288454055786,0.20580703020095825,0.8768608577181546,0.05624161979896375,0.06510889494877249,0.47298281767407757
1714155285364121900,2.091121826171875,-0.46622249484062195,-0.17229865491390228,-0.6671570539474487,0.05982797592878342,-0.1552000343799591,-0.9860697388648987,-0.08611883223056793,-1.0461549758911133,0.22883713245391846,0.8783794329169805,0.05446345383191574,0.06323650187935091,0.47062119045970296
1714155285374111000,2.101111083984375,-0.19638808071613312,-0.061566006392240524,-0.565754234790802,0.05961916223168373,-0.15135277807712555,-0.986680269241333,-0.024737536907196045,-0.6752616763114929,0.185166597366333,0.8800161496275898,0.053002114475955694,0.06205365331000964,0.4678801117574944
1714155285384099800,2.111099853515625,0.25428301095962524,-0.1144191101193428,-0.2598433494567871,0.05934152752161026,-0.15132053196430206,-0.9867019057273865,-0.15348821878433228,-0.16764923930168152,0.08310699462890625,0.8810074871556837,0.0531836406678164,0.061810515764781186,0.46602232551254413
1714155285394090000,2.121090087890625,0.6806433796882629,-0.11383827030658722,0.06033014506101608,0.05819270387291908,-0.1559220850467682,-0.9860537052154541,-0.0818743109703064,0.2379990667104721,-0.05125397443771362,0.881140755391947,0.05553986305371208,0.062357607367906014,0.4654220616835289
1714155285404078800,2.131078857421875,0.8662135601043701,0.03201320767402649,0.31594300270080566,0.05737561732530594,-0.1638241857290268,-0.9848195910453796,0.08491262793540955,0.5185452103614807,-0.13828825950622559,0.8804852670207224,0.05920325920976562,0.06391531448904089,0.46599941210606066
1714155285414069000,2.141069091796875,0.6930002570152283,0.2037559300661087,0.43537113070487976,0.05780436471104622,-0.17182420194149017,-0.9834302663803101,0.09890342503786087,0.6236979365348816,-0.18621689081192017,0.8793029967956685,0.06254967670497907,0.06612414303368067,0.4674840246825862
1714155285424057900,2.151057861328125,0.5111390352249146,0.30168914794921875,0.44165319204330444,0.0595371313393116,-0.17788541316986084,-0.9822484850883484,0.019259285181760788,0.42306357622146606,-0.16391539573669434,0.8779906947392402,0.06469424969746469,0.06848653757076935,0.4693149328290957
1714155285434048000,2.161048095703125,0.4213119447231293,0.32423335313796997,0.3388599753379822,0.06181827932596207,-0.18254795670509338,-0.98125159740448,-0.06923401355743408,0.10820707678794861,-0.13756853342056274,0.8768137013542301,0.06609221010389262,0.07075316106647106,0.4709814039563818
1714155285444036900,2.171036865234375,0.4262472093105316,0.3187991678714752,0.20643988251686096,0.06443118304014206,-0.18680843710899353,-0.9802811741828918,-0.10463806986808777,-0.08934518694877625,-0.10084974765777588,0.8759222300708535,0.06726831495403765,0.07303680237949038,0.47212371254891744
1714155285454027000,2.181027099609375,0.39048653841018677,0.23047862946987152,0.1383013129234314,0.0666629746556282,-0.19088034331798553,-0.9793471097946167,-0.11063876748085022,-0.12577009201049805,-0.0452958345413208,0.8752853499075154,0.06848514482159354,0.07507486415085801,0.4728097261043408
1714155285464016000,2.191015869140625,0.35243234038352966,0.17741353809833527,0.1120179146528244,0.06819167733192444,-0.19441786408424377,-0.9785456657409668,-0.10151684284210205,-0.12310232222080231,-0.0445103645324707,0.874802293625768,0.0696488739450882,0.07665644388910889,0.4732796492201474
1714155285474006000,2.201006103515625,0.40827855467796326,0.15290527045726776,0.14318834245204926,0.06934209167957306,-0.1980542242527008,-0.9777352213859558,-0.08482974022626877,-0.13976013660430908,-0.013200998306274414,0.8743202495550161,0.07094608717566392,0.07809631900068899,0.47374208118346955
1714155285483995000,2.210994873046875,0.4464879333972931,0.1458609402179718,0.19058415293693542,0.0702497735619545,-0.20219507813453674,-0.9768224358558655,-0.06991404294967651,-0.09512247145175934,0.018906235694885254,0.873718574124311,0.07250889436050391,0.07956903174925282,0.47437015509177
1714155285493985000,2.220985107421875,0.49082714319229126,0.18570689857006073,0.26631566882133484,0.07118292152881622,-0.20682284235954285,-0.975785493850708,-0.047913238406181335,0.005025297403335571,0.013505220413208008,0.8729513886154032,0.07425789471159433,0.08119744931246398,0.4752352143827659
1714155285503974000,2.230973876953125,0.4801446199417114,0.2257765531539917,0.3511657118797302,0.072344109416008,-0.2116824835538864,-0.9746572971343994,-0.049989961087703705,0.06570161879062653,0.01754981279373169,0.8719517641392381,0.07601661642055522,0.0830230395838737,0.476475191011921
1714155285513964000,2.240964111328125,0.4089394211769104,0.22548545897006989,0.390592485666275,0.07356168329715729,-0.21617692708969116,-0.9735790491104126,-0.0657949298620224,0.08438672125339508,0.03514832258224487,0.8708002759136028,0.07756644074668721,0.0848169256829112,0.4780129221606974
1714155285523953000,2.250952880859375,0.38015392422676086,0.22474856674671173,0.4079715311527252,0.07470805943012238,-0.22013728320598602,-0.9726038575172424,-0.07960611581802368,0.10327017307281494,0.06623184680938721,0.8696099301599183,0.0788797873424592,0.08646412892346138,0.4796670331436918
1714155285533942000,2.26094189453125,0.39156821370124817,0.24466662108898163,0.4408668875694275,0.0759291872382164,-0.2241569310426712,-0.9715906381607056,-0.10637043416500092,0.07278969883918762,0.09237927198410034,0.8683310357035442,0.08018204459358398,0.0881788377092641,0.4814522981594112
1714155285543932000,2.270931884765625,0.3557886481285095,0.2749835252761841,0.37697720527648926,0.07746998965740204,-0.22806520760059357,-0.9705589413642883,-0.13598743081092834,0.006370231509208679,0.0652092695236206,0.8670699657025007,0.08135562510349631,0.09000995047322985,0.48318638176716894
1714155285553921000,2.280921142578125,0.24357928335666656,0.2532643675804138,0.3121926188468933,0.07921553403139114,-0.2312341332435608,-0.9696677923202515,-0.13474223017692566,-0.01963566243648529,0.05879443883895874,0.8660051659265209,0.08217604004118696,0.09172344087321377,0.4846328257272459
1714155285563911000,2.290910888671875,0.04446229338645935,0.1897120177745819,0.2972733676433563,0.08059656620025635,-0.23288565874099731,-0.9691586494445801,-0.09092673659324646,-0.04958507418632507,0.08877229690551758,0.8651091684005423,0.08242308189524203,0.09288227837282279,0.4859685774455347
1714155285573900000,2.300900146484375,-0.13270503282546997,0.17714136838912964,0.2856636047363281,0.0816211849451065,-0.23261429369449615,-0.9691380262374878,-0.036134712398052216,-0.12906482815742493,0.07485097646713257,0.8643429915877198,0.08190537054985443,0.09339424235481737,0.48731926694035826
1714155285583890000,2.310889892578125,-0.234296515583992,0.20999358594417572,0.30513298511505127,0.0827874019742012,-0.2309875786304474,-0.9694281816482544,-0.02494131028652191,-0.1555023342370987,0.058539509773254395,0.863621108369012,0.08074618032744012,0.09362677000038752,0.4887457621810673
1714155285593879000,2.320879150390625,-0.204761803150177,0.22415602207183838,0.35530561208724976,0.08409523218870163,-0.22902721166610718,-0.969780683517456,-0.04739781469106674,-0.0808788388967514,0.039849042892456055,0.8627994001117278,0.0793826142964698,0.09385131603190668,0.49037492495691015
1714155285603869000,2.330868896484375,-0.05416595935821533,0.20666144788265228,0.35717421770095825,0.0853629782795906,-0.22797031700611115,-0.9699189066886902,-0.06323771923780441,0.0003549307584762573,0.03486037254333496,0.8618826738247901,0.07841969566898142,0.09429154785422256,0.49205448316342737
1714155285613858000,2.340858154296875,0.16131119430065155,0.165233314037323,0.421753466129303,0.08625061064958572,-0.22878096997737885,-0.9696494936943054,-0.062294282019138336,0.056616008281707764,0.05784529447555542,0.8608184957680722,0.07836435314271212,0.09504890101636276,0.4937774178413583
1714155285623848000,2.350847900390625,0.3294855058193207,0.15858925879001617,0.4588305950164795,0.08673645555973053,-0.2315209060907364,-0.9689555168151855,-0.06151364743709564,0.1333305537700653,0.04299122095108032,0.8595499315569795,0.0792371356277001,0.09614418266996563,0.49563249423708067
1714155285633837000,2.360837158203125,0.4992838501930237,0.20068451762199402,0.5117717981338501,0.08732802420854568,-0.23597581684589386,-0.9678270816802979,-0.0768452137708664,0.21098187565803528,0.04225945472717285,0.8580969855700994,0.08081896238353321,0.09774847871312227,0.49757705808987973
1714155285643827000,2.370826904296875,0.5580382347106934,0.17166350781917572,0.5593171715736389,0.08783704787492752,-0.24161623418331146,-0.9663882255554199,-0.10268382728099823,0.2135400027036667,0.0455661416053772,0.8564431435969591,0.08291265449775717,0.09965624456478489,0.49969913488061657
1714155285653816000,2.380816162109375,0.5209363698959351,0.17035190761089325,0.5506390333175659,0.08806624263525009,-0.2473115622997284,-0.9649255275726318,-0.0866929292678833,0.1462678164243698,0.01579838991165161,0.8547448806671598,0.08508742384574627,0.10147587598221726,0.5018704507101248
1714155285663806000,2.390805908203125,0.34204766154289246,0.1839286983013153,0.52630215883255,0.08839073777198792,-0.2520200312137604,-0.9636768102645874,-0.059048064053058624,0.125341534614563,0.013084769248962402,0.8531164262112463,0.08680257889345686,0.103086913267354,0.5040146349894854
1714155285673795000,2.400795166015625,0.040948253124952316,0.16592413187026978,0.4850088059902191,0.08875352889299393,-0.2543204426765442,-0.9630389213562012,-0.07082442194223404,0.11424469947814941,0.022822856903076172,0.8516571523798472,0.08745125019558124,0.10408088031340718,0.5061615597221882
1714155285683784000,2.410783935546875,-0.20264795422554016,0.19139140844345093,0.4347963035106659,0.08927397429943085,-0.253819078207016,-0.963123083114624,-0.09627774357795715,0.057621538639068604,0.03764700889587402,0.8504474798770565,0.08684520449826205,0.10438572503630203,0.5082329101138922
1714155285693774000,2.420774169921875,-0.2722475230693817,0.24766027927398682,0.32825547456741333,0.09066545218229294,-0.25177687406539917,-0.9635290503501892,-0.11457595229148865,-0.0040520429611206055,0.08875793218612671,0.8494942083786907,0.08537762282434708,0.10462383043531427,0.5100237038280191
1714155285703763000,2.430762939453125,-0.31736791133880615,0.09371918439865112,0.3815612494945526,0.0913776308298111,-0.24924816191196442,-0.964119017124176,-0.1059039756655693,-0.055393606424331665,0.12184911966323853,0.8486318609990582,0.08388385882379992,0.10442218274052961,0.5117453745270856
1714155285713753000,2.440753173828125,-0.3143332302570343,0.054249007254838943,0.3498392701148987,0.09105805307626724,-0.24647098779678345,-0.9648629426956177,-0.06972625106573105,-0.058430179953575134,0.12123507261276245,0.8477757931354226,0.08254601717823383,0.1037048197651413,0.5135245904093706
1714155285723742000,2.450741943359375,-0.20286312699317932,0.14177778363227844,0.2836875319480896,0.09114541858434677,-0.24415375292301178,-0.9654436707496643,-0.04214942455291748,-0.006944924592971802,0.1206408143043518,0.8470305093917729,0.08133665092269,0.10325948611274385,0.5150350548262288
1714155285733732000,2.460732177734375,-0.07618534564971924,0.23124614357948303,0.2816198468208313,0.09229443222284317,-0.24313963949680328,-0.9655904173851013,-0.04783029854297638,0.028997749090194702,0.09208577871322632,0.8462563519888122,0.08043371233531663,0.10361085789980684,0.51637715095108
1714155285743721000,2.470720947265625,-0.010266358032822609,0.2048259973526001,0.29866477847099304,0.09372711926698685,-0.24294640123844147,-0.965501070022583,-0.030387870967388153,0.019252508878707886,0.06981015205383301,0.8454063527701814,0.07980845343542922,0.10430765387426275,0.51772450411682
1714155285753711000,2.480711181640625,0.05256293714046478,0.12388373911380768,0.27927669882774353,0.09463544189929962,-0.24347929656505585,-0.965278148651123,0.03637654334306717,0.013437733054161072,0.04410511255264282,0.8445642871547585,0.07964222605388256,0.10496678987550769,0.5189895277305998
1714155285763700000,2.490699951171875,-0.015839502215385437,0.0882815420627594,0.2752699553966522,0.09493095427751541,-0.24401047825813293,-0.9651150107383728,0.08342904597520828,0.017783641815185547,0.007778644561767578,0.8437753386564449,0.07964300882691637,0.10535409698657908,0.5201927173286656
1714155285773690000,2.500690185546875,-0.23459288477897644,0.1092992052435875,0.2305072695016861,0.09521593898534775,-0.24310001730918884,-0.9653167128562927,0.08936965465545654,0.008862301707267761,-0.0019837021827697754,0.8431149428662201,0.079030284491703,0.10533693837364985,0.5213593466514314
1714155285783679000,2.510678955078125,-0.5174992680549622,0.1326892226934433,0.24492482841014862,0.09582012891769409,-0.23968210816383362,-0.9661112427711487,0.0512441024184227,-0.03824152052402496,0.019410252571105957,0.8425882228189103,0.07724826001348448,0.10477152476163935,0.5225902814956074
1714155285793668900,2.5206689453125,-0.7483181357383728,0.1106366440653801,0.3009774386882782,0.09637551009654999,-0.23374991118907928,-0.9675084948539734,-0.003006957471370697,-0.1240534782409668,0.055185556411743164,0.8420564317963631,0.07436759456738534,0.1035142459042032,0.5241137943131281
1714155285803658000,2.530657958984375,-0.8303737640380859,0.05663679540157318,0.32744500041007996,0.09646221250295639,-0.22628231346607208,-0.9692736268043518,-0.0086631178855896,-0.184224933385849,0.1000109314918518,0.8414712921253842,0.07093037420815647,0.1016467944673411,0.5258924939596287
1714155285813648000,2.54064794921875,-0.738163411617279,0.008120926097035408,0.30717703700065613,0.09600389748811722,-0.2189120501279831,-0.971010148525238,0.023762360215187073,-0.17914403975009918,0.10452461242675781,0.840897486068932,0.06769513317069335,0.0995604411945927,0.5276328387348003
1714155285823636700,2.55063671875,-0.5379415154457092,-0.023647654801607132,0.2800746262073517,0.09525104612112045,-0.2129100114107132,-0.9724178910255432,0.04737287014722824,-0.10503743588924408,0.07227140665054321,0.8403441409429562,0.06515496901817201,0.09770303726131024,0.5291791390125895
1714155285833626600,2.560626708984375,-0.26466843485832214,0.03454640880227089,0.29723018407821655,0.09467006474733353,-0.20928356051445007,-0.9732615351676941,0.047404542565345764,0.0021759718656539917,0.05065411329269409,0.8397174438199042,0.06360531212365611,0.09655884288988782,0.530570667218964
1714155285843615700,2.57061572265625,-0.0921211689710617,-0.027936410158872604,0.30767324566841125,0.09418605268001556,-0.2078912854194641,-0.9736068248748779,0.03839758038520813,0.05940796434879303,0.03523707389831543,0.8389370376853212,0.06298311816644145,0.09607147057213367,0.5319661623782947
1714155285853605600,2.580605712890625,-0.05506088584661484,-0.13350917398929596,0.2572348117828369,0.09275150299072266,-0.20750761032104492,-0.9738263487815857,0.05493833124637604,0.046176403760910034,-0.010762214660644531,0.8382431778221069,0.06307053308115171,0.09544074251183894,0.5331618372840591
1714155285863594800,2.5905947265625,-0.10683012753725052,-0.1793602854013443,0.253564715385437,0.09066370874643326,-0.20697332918643951,-0.9741365909576416,0.08527015149593353,0.010256960988044739,-0.022857367992401123,0.8376800486598142,0.06329130523722812,0.09447702067824872,0.5341912604872185
1714155285873583900,2.600583984375,-0.1609969586133957,-0.15446852147579193,0.2356581687927246,0.08850524574518204,-0.20587635040283203,-0.9745674729347229,0.09283021837472916,-0.02901749312877655,-0.0115622878074646,0.8371421607912414,0.06329318619245596,0.09332866733019884,0.5352351477679436
1714155285883573800,2.61057373046875,-0.2328210324048996,-0.12077314406633377,0.17984576523303986,0.08667729794979095,-0.20417217910289764,-0.9750901460647583,0.06974056363105774,-0.04807090759277344,0.0014573335647583008,0.836711141989285,0.06296468179094777,0.09214328488858667,0.536152374436918
1714155285893563000,2.62056298828125,-0.32470273971557617,-0.03938986733555794,0.12583819031715393,0.0855591744184494,-0.20157037675380707,-0.9757300019264221,0.03527519106864929,-0.041441142559051514,0.02410036325454712,0.8364253766798488,0.06208449397702999,0.0909973771587432,0.5368961880399974
1714155285903552800,2.630552734375,-0.44539740681648254,-0.04799187555909157,0.0927712470293045,0.08497318625450134,-0.1979430466890335,-0.9765234589576721,0.010836765170097351,-0.03923963010311127,0.014029622077941895,0.836271291674418,0.06064209836953862,0.08978192969504628,0.5375054219244046
1714155285913542000,2.6405419921875,-0.6365066766738892,-0.07321707904338837,0.06172064691781998,0.08416325598955154,-0.1927323192358017,-0.9776353240013123,0.019657567143440247,-0.07849271595478058,-0.021266043186187744,0.8362601477676375,0.05860090511741115,0.08802431564241658,0.5380394766704713
1714155285923531800,2.65053173828125,-0.7124730944633484,-0.015285063534975052,0.04700002819299698,0.08361160755157471,-0.18608124554157257,-0.9789702892303467,0.041602037847042084,-0.1139066070318222,-0.009967029094696045,0.8363369563183168,0.05588684060152014,0.0859738623397793,0.5385403002033804
1714155285933521000,2.66052099609375,-0.666550874710083,-0.03676638752222061,0.032767828553915024,0.08334992825984955,-0.17928028106689453,-0.9802608489990234,0.047250062227249146,-0.12143999338150024,0.004690229892730713,0.8364257720010302,0.053037933616780254,0.08400323975529043,0.5390012028395191
1714155285943510800,2.6705107421875,-0.5545324683189392,-0.11397702246904373,0.02169879898428917,0.08255358785390854,-0.17328132688999176,-0.9814063906669617,0.054226212203502655,-0.11701719462871552,-0.01062852144241333,0.8365475028614546,0.05068790194647707,0.08202162140488595,0.5393434648382789
1714155285953500000,2.6805,-0.3587440252304077,-0.1439482420682907,0.02116110734641552,0.0811929851770401,-0.168758824467659,-0.9823075532913208,0.06103421002626419,-0.06558570265769958,-0.0179518461227417,0.8366559720877854,0.04912554317597521,0.08020534921655453,0.539592852334634
1714155285963489800,2.69048974609375,-0.19864393770694733,-0.12401500344276428,0.004156223498284817,0.07983023673295975,-0.16608597338199615,-0.9828746318817139,0.03670115768909454,0.004144385457038879,-0.019047915935516357,0.8367375137232786,0.048355880155979795,0.07889475622181374,0.5397292523800623
1714155285973479000,2.70047900390625,-0.11724841594696045,-0.10008544474840164,-0.029149800539016724,0.07874608039855957,-0.16453826427459717,-0.9832223653793335,-0.0039474815130233765,0.027483761310577393,-0.028938889503479004,0.8368600644699986,0.04800078227057133,0.07800476927650048,0.5397002649827947
1714155285983468800,2.71046875,-0.10336083173751831,-0.08282788842916489,-0.05368869751691818,0.07792039215564728,-0.16349926590919495,-0.9834614396095276,-0.033975064754486084,0.013444259762763977,-0.017240464687347412,0.8370335411572967,0.04780180813439885,0.07735804499491361,0.5395419915802468
1714155285993458000,2.7204580078125,-0.1667717695236206,-0.08299460262060165,-0.030704287812113762,0.0771850198507309,-0.1621817946434021,-0.9837375283241272,-0.0423644483089447,-0.013553723692893982,-0.019100546836853027,0.8372160750887154,0.04746022911071497,0.07667306436629441,0.5393866459982769
1714155286003447800,2.73044775390625,-0.3218195140361786,-0.10020821541547775,-0.0015549248782917857,0.07627146691083908,-0.15979908406734467,-0.9841986298561096,-0.04013863950967789,-0.05187089741230011,-0.03458493947982788,0.8373506577410885,0.04670284068290659,0.07562762665728989,0.53939135301431
1714155286013436700,2.740436767578125,-0.46712103486061096,-0.04006391391158104,0.0026368906255811453,0.07551244646310806,-0.15585657954216003,-0.9848891496658325,-0.04427769035100937,-0.07772500813007355,-0.01091468334197998,0.8374668405092816,0.04523347303000603,0.07422513080676511,0.5395310058240308
1714155286023426800,2.7504267578125,-0.4483335018157959,0.0802190825343132,-0.0013248943723738194,0.07570779323577881,-0.15125806629657745,-0.9855908751487732,-0.07019935548305511,-0.07391594350337982,0.023020684719085693,0.8375677978157992,0.04322613026925872,0.07304844276130704,0.5396996219287051
1714155286033415700,2.760415771484375,-0.3843989968299866,0.09162726998329163,0.04539360851049423,0.07656645774841309,-0.14715172350406647,-0.9861460328102112,-0.0909402146935463,-0.059315025806427,0.02053934335708618,0.8375781014530164,0.04124052583427244,0.07229256181270992,0.5399407225930233
1714155286043405800,2.77040576171875,-0.28868812322616577,0.0463482066988945,0.07603081315755844,0.07718388736248016,-0.14385077357292175,-0.9865848422050476,-0.05820193886756897,-0.07279357314109802,-0.004671871662139893,0.8374391273366306,0.03964555854260416,0.07166465125375442,0.5403591021939103
1714155286053394700,2.780394775390625,-0.1826823353767395,-0.01594126597046852,0.10246828198432922,0.07714596390724182,-0.14158682525157928,-0.9869152307510376,0.007921800017356873,-0.0717158317565918,-0.017448723316192627,0.8372480472365549,0.038664041480692975,0.07104560909887654,0.5408078110620942
1714155286063383800,2.7903837890625,-0.08812370896339417,-0.04403255507349968,0.16439609229564667,0.07664483785629272,-0.14037305116653442,-0.9871276617050171,0.054580770432949066,-0.04961419105529785,-0.01032412052154541,0.8369208815041208,0.03823845510169166,0.07052660353856487,0.5414122323901707
1714155286073373700,2.800373779296875,-0.11585067957639694,-0.053042829036712646,0.14099836349487305,0.07591373473405838,-0.13959920406341553,-0.9872938394546509,0.07154722511768341,-0.03889816999435425,0.0023848414421081543,0.8365218077537531,0.03805403860517625,0.07003542307334551,0.5421051836556765
1714155286083362800,2.81036279296875,-0.21648994088172913,-0.0009391475468873978,0.03995150700211525,0.07543525099754333,-0.13797283172607422,-0.9875591397285461,0.040287427604198456,-0.04350000619888306,-0.013859927654266357,0.836326826491782,0.03746537046229053,0.06940306439498271,0.5425282208600329
1714155286093352700,2.820352783203125,-0.25780487060546875,0.08351554721593857,-0.02756202407181263,0.07587728649377823,-0.1355901062488556,-0.9878552556037903,-0.007472112774848938,-0.07510332763195038,-0.008619964122772217,0.8363483262487799,0.03633420811766103,0.06893626792241198,0.5426316087177281
1714155286103341800,2.830341796875,-0.26608696579933167,0.10567304491996765,-0.0474126935005188,0.07688131928443909,-0.13293442130088806,-0.9881384968757629,-0.026252642273902893,-0.12127704918384552,0.004099249839782715,0.8364641444252074,0.0349474355677086,0.06862525192527431,0.5425835699839204
1714155286113331700,2.840331787109375,-0.1930103302001953,0.07638120651245117,-0.037104662507772446,0.07784437388181686,-0.13058865070343018,-0.9883758425712585,-0.01217053085565567,-0.1308860182762146,-0.0036132335662841797,0.8365940418756903,0.03370575603937758,0.06838120510300776,0.5424925382970331
1714155286123320800,2.85032080078125,-0.09373701363801956,0.0438605472445488,0.0029281736351549625,0.07843928784132004,-0.12918703258037567,-0.9885129928588867,0.020407162606716156,-0.1133667379617691,-0.003552377223968506,0.836647341120975,0.032955654331654476,0.06824526359970898,0.5424736580095232
1714155286133310700,2.860310791015625,-0.03422655165195465,0.046747948974370956,-0.016939539462327957,0.07886244356632233,-0.12874986231327057,-0.9885363578796387,0.052271611988544464,-0.1067543476819992,-0.0019726157188415527,0.8366359298401451,0.032654023796392324,0.06830462086992173,0.5425021212874104
1714155286143299800,2.8702998046875,-0.0019333269447088242,0.07101466506719589,-0.09086063504219055,0.07958092540502548,-0.12863297760486603,-0.9884940385818481,0.06029640883207321,-0.07581961154937744,0.011473774909973145,0.8367595149608317,0.03242593928927635,0.06856782984483219,0.542291802853588
1714155286153289700,2.880289794921875,0.015265100635588169,0.050282228738069534,-0.12847699224948883,0.08046761900186539,-0.12872567772865295,-0.9884101748466492,0.052573785185813904,-0.03909052908420563,0.03638380765914917,0.8370328679365038,0.03226083730666,0.06895037889613645,0.5418311178664187
1714155286163278800,2.89027880859375,-0.008354688063263893,-0.03430056571960449,-0.17060600221157074,0.08079180866479874,-0.12873180210590363,-0.9883829355239868,0.06572310626506805,-0.04828546941280365,0.046900391578674316,0.8374197476866901,0.03222538362428056,0.06906564414472374,0.5412202903929996
1714155286173268700,2.900268798828125,-0.005803379230201244,-0.08781199902296066,-0.2556612491607666,0.08040818572044373,-0.12858404219150543,-0.9884334206581116,0.09428969770669937,-0.06219664216041565,0.04981958866119385,0.8380089132740567,0.03234081058855278,0.06882842847885008,0.5403310109497872
1714155286183257900,2.9102578125,0.0458594411611557,-0.08227528631687164,-0.31489458680152893,0.07986841350793839,-0.1287434995174408,-0.9884564280509949,0.09618750959634781,-0.048487380146980286,0.05217719078063965,0.8388088096713002,0.03265557368634836,0.06859584634185488,0.5390992143652149
1714155286193247700,2.920247802734375,0.06423764675855637,-0.07987257838249207,-0.3405373692512512,0.07945404201745987,-0.12938764691352844,-0.988405704498291,0.06867830455303192,-0.04312829673290253,0.03270202875137329,0.8396941552417363,0.0331541737554519,0.06854147679751221,0.5376957020991131
1714155286203236900,2.93023681640625,0.04654952138662338,-0.06818210333585739,-0.3224084675312042,0.07915985584259033,-0.13003593683242798,-0.9883442521095276,0.04168976843357086,-0.0429987758398056,0.008470654487609863,0.8405973001051981,0.03362500324107419,0.06853634521199727,0.5362538582779943
1714155286213226800,2.940226806640625,0.055406391620635986,-0.07258404046297073,-0.23643015325069427,0.07895632833242416,-0.1306762844324112,-0.9882760643959045,0.03429441154003143,-0.029754653573036194,-0.0011037588119506836,0.8413581280302372,0.034050473933819964,0.06857497036537731,0.5350276024003546
1714155286223215900,2.9502158203125,0.04573310166597366,-0.08239033073186874,-0.14111460745334625,0.07860449701547623,-0.13131867349147797,-0.9882189631462097,0.04628870636224747,-0.02128453552722931,-0.006852447986602783,0.8418621830402764,0.03448369695777171,0.06856667709547049,0.5342072976786697
1714155286233205800,2.960205810546875,0.017279621213674545,-0.08978593349456787,-0.12043038010597229,0.07808400690555573,-0.13165998458862305,-0.9882148504257202,0.06777477264404297,-0.01577049493789673,-0.016698479652404785,0.8422161660148919,0.03481357583935177,0.06841494159338646,0.5336471288483645
1714155286243195000,2.97019482421875,0.0037471954710781574,-0.10741419345140457,-0.11913807690143585,0.07744833081960678,-0.1318122297525406,-0.9882445335388184,0.07483440637588501,0.004462331533432007,-0.027914464473724365,0.8425644909912273,0.03509213313693256,0.06816352702316304,0.5331110317656473
1714155286253184800,2.980184814453125,0.0033882013522088528,-0.0949745699763298,-0.08717188984155655,0.07673802971839905,-0.13188545405864716,-0.9882901906967163,0.06507717072963715,0.028324007987976074,-0.040854036808013916,0.8428694773632266,0.03535083478451663,0.06786179743989353,0.5326500407159303
1714155286263174000,2.990173828125,0.08621171116828918,-0.038302231580019,-0.07791134715080261,0.07633310556411743,-0.13228337466716766,-0.9882683753967285,0.04604240506887436,0.04488097131252289,-0.042615413665771484,0.843098372523982,0.035657928368818224,0.06778148393548943,0.5322773288093992
1714155286273162800,3.000162841796875,0.24444875121116638,0.01445711962878704,-0.07783438265323639,0.07644816488027573,-0.13396503031253815,-0.9880329370498657,0.012586899101734161,0.07520337402820587,-0.03763234615325928,0.843278853311183,0.03637191731047629,0.06826876628883118,0.5318808307441253
1714155286283153000,3.01015283203125,0.3376582860946655,0.04106049984693527,-0.05416826903820038,0.07687292248010635,-0.1368967890739441,-0.9875980019569397,-0.01933201402425766,0.11164344847202301,-0.05009114742279053,0.843385505280213,0.03753186851481823,0.0692268438340816,0.5315071160542874
1714155286293141800,3.020141845703125,0.3628634810447693,0.04533194378018379,-0.027538521215319633,0.07740803807973862,-0.1403784304857254,-0.9870673418045044,-0.020050227642059326,0.12437190115451813,-0.061531901359558105,0.843413358394201,0.038889912011370986,0.07038405893653447,0.5312132542071782
1714155286303132000,3.0301318359375,0.3262246251106262,0.03974463418126106,0.01441997941583395,0.07788608968257904,-0.1438155472278595,-0.9865347743034363,0.00904325395822525,0.11029192805290222,-0.05295497179031372,0.8433478754042814,0.04023279296026074,0.0715118126362477,0.5310665885483485
1714155286313120800,3.040120849609375,0.2314712256193161,0.01366669312119484,0.04564154893159866,0.07818421721458435,-0.1466308832168579,-0.9860966801643372,0.04150574654340744,0.07209165394306183,-0.03785961866378784,0.8431950559606392,0.04134470465700528,0.0724036534832094,0.5311029525374241
1714155286323111000,3.05011083984375,0.1159936785697937,0.00398077629506588,0.03171088919043541,0.07827728241682053,-0.14831764996051788,-0.9858369827270508,0.06767305731773376,0.03648592531681061,-0.03816509246826172,0.8430449473810215,0.04202564785435488,0.0729065054197419,0.5312189554937901
1714155286333099800,3.060099853515625,0.026241160929203033,0.01207492221146822,0.001894134795293212,0.07840055972337723,-0.14891210198402405,-0.9857375621795654,0.07397372275590897,0.023591607809066772,-0.04993748664855957,0.842992416918614,0.04224176126530424,0.0731221886760692,0.531255535961554
1714155286343090000,3.07008984375,-0.04910312965512276,0.03414560481905937,-0.0005401941016316414,0.07867992669343948,-0.14867471158504486,-0.9857511520385742,0.05997670441865921,0.014153167605400085,-0.05851459503173828,0.8429853771015345,0.042064729240326636,0.07317781053862236,0.5312730991851972
1714155286353078800,3.080078857421875,-0.10849189013242722,0.05156853422522545,-0.05139352008700371,0.07917879521846771,-0.147632896900177,-0.9858677387237549,0.04246429353952408,-0.009151235222816467,-0.04507702589035034,0.8430567759178269,0.041494189379146236,0.07310506656484184,0.5312147460651835
1714155286363069000,3.09006884765625,-0.08015990257263184,0.03429127857089043,-0.057807546108961105,0.07968030124902725,-0.14635443687438965,-0.9860179424285889,0.02963367849588394,-0.006386101245880127,-0.023183047771453857,0.8432326400964469,0.04083554107913966,0.07296216122889898,0.5310061543407919
1714155286373057800,3.100057861328125,-0.021421488374471664,0.015417988412082195,-0.011356156319379807,0.07995808869600296,-0.14555463194847107,-0.9861138463020325,0.03333842754364014,0.011673972010612488,-0.017349839210510254,0.843331585388559,0.040431493447769584,0.0728585155688783,0.5308941223297996
1714155286383048000,3.1100478515625,0.020882505923509598,0.011191551573574543,-0.005028152838349342,0.08012309670448303,-0.1452854424715042,-0.9861401915550232,0.04403769224882126,0.012274518609046936,-0.019536077976226807,0.8433558123087171,0.0402753749680114,0.07285472765168077,0.5308680504114359
1714155286393036800,3.120036865234375,0.029353488236665726,0.006435145623981953,-0.021830035373568535,0.08031118661165237,-0.14534525573253632,-0.9861160516738892,0.046260491013526917,0.01450107991695404,-0.01867520809173584,0.8433915357022437,0.04025635999025704,0.07294792976804707,0.5307999402785999
1714155286403027000,3.13002685546875,0.030928216874599457,0.0037413579411804676,-0.025861196219921112,0.08049033582210541,-0.14552567899227142,-0.9860748052597046,0.03829935938119888,0.012591049075126648,-0.019113123416900635,0.8434522701841064,0.0402950823358475,0.07306770807031536,0.530683977785377
1714155286413015800,3.140015869140625,0.020046008750796318,-0.000609980896115303,-0.01465940847992897,0.08065342158079147,-0.1457168459892273,-0.9860332608222961,0.03404691070318222,0.014964237809181213,-0.017018437385559082,0.8435040811906179,0.04034147502938919,0.07318420189948067,0.5305820539999762
1714155286423005700,3.150005615234375,-0.04958511143922806,0.0084301196038723,-0.02066643536090851,0.08078525960445404,-0.1455347090959549,-0.9860493540763855,0.030237704515457153,0.01055540144443512,-0.018650293350219727,0.8435394579376958,0.04023314045150437,0.07318881723325545,0.5305333988681353
1714155286432994800,3.159994873046875,-0.10012897849082947,0.016695505008101463,-0.05748623609542847,0.0810326635837555,-0.1447436511516571,-0.9861454963684082,0.020728223025798798,-0.005524963140487671,-0.02828925848007202,0.8436530926396325,0.039842930171226594,0.073073812524798,0.5303981678081247
1714155286442984700,3.169984619140625,-0.11238644272089005,0.006984289735555649,-0.031973350793123245,0.08131605386734009,-0.14367392659187317,-0.9862785935401917,0.014814324676990509,-0.011569038033485413,-0.031818270683288574,0.8437933783928239,0.03932695340285657,0.0728977721173172,0.5302375898030363
1714155286452973800,3.179973876953125,-0.15273386240005493,-0.0021247866097837687,-0.03495023399591446,0.08142933249473572,-0.14230577647686005,-0.9864675998687744,0.02040783315896988,-0.024152398109436035,-0.03756493330001831,0.8438987994591307,0.03872261201211643,0.0725724487879962,0.5301588362749408
1714155286462963700,3.189963623046875,-0.15245738625526428,0.014718109741806984,-0.07511383295059204,0.08162669837474823,-0.14066889882087708,-0.9866860508918762,0.03240225464105606,-0.033967986702919006,-0.03991001844406128,0.8440750683462914,0.037990147103474356,0.07220615692412417,0.5299813373244724
1714155286472952800,3.199952880859375,-0.10814397037029266,0.04813731834292412,-0.07097075134515762,0.0821312665939331,-0.13928750157356262,-0.9868401288986206,0.024710796773433685,-0.017832323908805847,-0.030356526374816895,0.8442952796409202,0.03729266510807363,0.07203603259850076,0.5297033307871488
1714155286482942700,3.209942626953125,1.1105378866195679,0.22386839985847473,-0.10005433112382889,0.08318928629159927,-0.14332929253578186,-0.9861725568771362,0.009248480200767517,-0.00036278367042541504,-0.02621757984161377,0.8443799954307265,0.0387661199477432,0.07355897526866514,0.5292529813051827
1714155286492931800,3.219931884765625,0.6235235929489136,0.16021032631397247,-0.11950952559709549,0.08474547415971756,-0.1530093252658844,-0.9845843315124512,0.010515168309211731,0.014551028609275818,-0.025150716304779053,0.8444640265754899,0.04254497123946899,0.07679679961418362,0.5283679462427566
1714155286502921700,3.229921630859375,0.3965170979499817,0.11621863394975662,-0.0647205114364624,0.08671142905950546,-0.15722297132015228,-0.9837489724159241,-0.003520496189594269,0.006481349468231201,-0.03781163692474365,0.8445079653456357,0.04385682566194855,0.07875334028089881,0.5279020522077366
1714155286512910800,3.239910888671875,0.2900114357471466,-0.038598641753196716,-0.12199684977531433,0.08712635934352875,-0.16073615849018097,-0.9831444025039673,-0.012831293046474457,0.04216006398200989,0.034719109535217285,0.8447007164081819,0.045297566062791506,0.07984947536121066,0.5273071101713491
1714155286522900700,3.249900634765625,0.10804590582847595,-0.045754022896289825,-0.00274409307166934,0.08675131946802139,-0.1624404340982437,-0.9828974008560181,0.0191904678940773,0.054835423827171326,0.07441967725753784,0.8448408438235748,0.0461553844964768,0.08013100921490704,0.5269653448624141
1714155286532889900,3.259889892578125,-0.04576576501131058,-0.04438702389597893,-0.027472607791423798,0.08635582774877548,-0.16279123723506927,-0.9828742146492004,0.04987466335296631,-0.046513631939888,-0.0018975138664245605,0.8448694713506764,0.046415310644668875,0.08005324122664727,0.52690855106247
1714155286542879700,3.269879638671875,-0.21303176879882812,-0.03927455097436905,-0.05577169358730316,0.08610111474990845,-0.16142359375953674,-0.9831220507621765,0.032276593148708344,0.0025642812252044678,0.01991105079650879,0.8450394729266291,0.0459150967709541,0.07956610218196025,0.5267535471406937
1714155286552868900,3.279868896484375,-0.3357957601547241,-0.0029751339461654425,-0.05938133969902992,0.08599833399057388,-0.15864190459251404,-0.9835837483406067,2.2351741790771484e-7,0.013408690690994263,0.009401679039001465,0.8452620459949787,0.04477044339717736,0.07876371456854572,0.5266155567473837
1714155286562858000,3.28985791015625,-0.43074917793273926,0.04386081546545029,-0.08573971688747406,0.08633987605571747,-0.15464909374713898,-0.9841895699501038,0.0007115378975868225,0.0209973007440567,-0.00476306676864624,0.8455429721478638,0.04299419838425693,0.07782493460285865,0.526452149355323
1714155286572847900,3.299847900390625,-0.4521082639694214,0.09342862665653229,-0.05721432343125343,0.0871158316731453,-0.15019667148590088,-0.9848105311393738,-0.0032840222120285034,0.023747026920318604,-0.02303248643875122,0.8458061718063756,0.040903714946994206,0.076952056445073,0.5263240637877484
1714155286582837000,3.3098369140625,-0.4641537666320801,0.12750138342380524,-0.011480060406029224,0.08823414891958237,-0.14563743770122528,-0.985395610332489,-0.018470942974090576,-0.00045026838779449463,-0.038163959980010986,0.8459394828424751,0.038659854614124384,0.07620774947125952,0.5263876850420464
1714155286592827000,3.319826904296875,-0.21833865344524384,0.2561618983745575,0.06589008867740631,0.08991572260856628,-0.14194536209106445,-0.985782265663147,-0.012645207345485687,0.0025562793016433716,-0.05280715227127075,0.845895092604097,0.03661904147486475,0.0759467815789439,0.5266426141005365
1714155286602815700,3.329815673828125,-0.007371608167886734,0.23417270183563232,0.01957446150481701,0.0922539085149765,-0.14104506373405457,-0.9856954216957092,-0.01124497503042221,0.014534398913383484,-0.062552809715271,0.845709517026351,0.03559188433643757,0.07671699892154916,0.5268993793449854
1714155286612806000,3.339805908203125,0.01979449763894081,0.1855870485305786,0.07918079942464828,0.09426229447126389,-0.1411270648241043,-0.9854936599731445,-0.02111164480447769,0.04600372910499573,-0.0749463438987732,0.8455203867636956,0.03507413448263406,0.0776078042101962,0.5271072916800076
1714155286622794800,3.349794677734375,0.023464016616344452,0.18505895137786865,0.11781088262796402,0.09585390239953995,-0.1414233297109604,-0.985297679901123,-0.006773069500923157,0.0899706482887268,-0.06896257400512695,0.8451647096027526,0.034732814763998754,0.07838879790037932,0.5275845371864174
1714155286632785000,3.359784912109375,0.031364280730485916,0.2338310182094574,0.09832320362329483,0.09770438820123672,-0.14172255992889404,-0.9850728511810303,0.030652567744255066,0.05573922395706177,-0.05371493101119995,0.8448025494082263,0.03432318424049543,0.07928103072019486,0.5280577671393257
1714155286642773800,3.369773681640625,0.05738666653633118,0.26581743359565735,0.1018558144569397,0.09998142719268799,-0.14223255217075348,-0.9847708344459534,0.0018404796719551086,0.010488137602806091,-0.062302470207214355,0.8444351578630815,0.03389096187175478,0.08041133508672495,0.528502099097248
1714155286652764000,3.379763916015625,0.06940817832946777,0.27466580271720886,0.11930324882268906,0.1024511381983757,-0.1429225653409958,-0.9844170212745667,-0.03271845728158951,0.005761265754699707,-0.06341922283172607,0.8440349929013091,0.03347970583307948,0.08167369142625583,0.5289737626066102
1714155286662752800,3.389752685546875,0.07787969708442688,0.2792679965496063,0.14767543971538544,0.10497494786977768,-0.14372168481349945,-0.9840347170829773,-0.025369830429553986,0.018050238490104675,-0.05159449577331543,0.8435600803913332,0.03308831009742897,0.0829927862768819,0.5295503799789648
1714155286672743000,3.399742919921875,0.09806273132562637,0.2834677994251251,0.17356082797050476,0.10745591670274734,-0.14468993246555328,-0.9836249351501465,-0.01669662445783615,0.0018065869808197021,-0.03866809606552124,0.8430104117471144,0.03276757658380118,0.08434340715342092,0.530231818209131
1714155286682731800,3.409731689453125,0.14414985477924347,0.30116477608680725,0.18287557363510132,0.11002743244171143,-0.14600522816181183,-0.9831461906433105,-0.014232739806175232,-0.011831745505332947,-0.03440141677856445,0.8423941115644242,0.03255989761224187,0.08582982134269257,0.5309850448632567
1714155286692722000,3.419721923828125,0.18610982596874237,0.31895655393600464,0.19651654362678528,0.11273087561130524,-0.14778092503547668,-0.982574462890625,-0.023756854236125946,0.00814768671989441,-0.0312957763671875,0.8417368514482174,0.032506809666703065,0.08749905437980118,0.531757543847961
1714155286702710800,3.429710693359375,0.2267404943704605,0.3390823304653168,0.19017282128334045,0.1156032606959343,-0.14994700253009796,-0.9819123148918152,-0.042544156312942505,0.02355840802192688,-0.023199379444122314,0.8410506995912648,0.03256989308878107,0.08934791007679238,0.5325314406653138
1714155286712701000,3.439700927734375,0.31248870491981506,0.3637751638889313,0.19875752925872803,0.11868944019079208,-0.1526891440153122,-0.9811212420463562,-0.05371749401092529,0.02161608636379242,-0.014224827289581299,0.8403395120012311,0.032817638440607436,0.09144612565336273,0.5332824727236221
1714155286722689800,3.449689697265625,0.3820919394493103,0.36931321024894714,0.23053869605064392,0.12189042568206787,-0.156339630484581,-0.9801533818244934,-0.05993974208831787,0.015836656093597412,-0.004770874977111816,0.8395434574574809,0.03340875240194336,0.09384650896730003,0.5340818424943901
1714155286732680000,3.459679931640625,0.34899789094924927,0.35011500120162964,0.23614437878131866,0.12497450411319733,-0.1601778119802475,-0.9791447520256042,-0.057225458323955536,-0.003838956356048584,0.004581153392791748,0.8386890089502833,0.03409759427191975,0.096254761637208,0.5349515072470079
1714155286742668800,3.469668701171875,0.3393324315547943,0.3310518264770508,0.24199402332305908,0.12784677743911743,-0.16375304758548737,-0.9781820774078369,-0.040871649980545044,-0.020664721727371216,0.020372629165649414,0.837824942798274,0.03472335426824695,0.09850513177953446,0.5358546614327094
1714155286752659000,3.479658935546875,0.3363020122051239,0.31736984848976135,0.24566411972045898,0.13055329024791718,-0.1673227697610855,-0.9772199988365173,-0.029860541224479675,-0.020482435822486877,0.04239034652709961,0.8369590232104607,0.03538640417378223,0.10068665041054736,0.5367584828629235
1714155286762647800,3.489647705078125,0.34214314818382263,0.31241077184677124,0.2719590961933136,0.13313643634319305,-0.17090024054050446,-0.9762519001960754,-0.029239341616630554,-0.011961132287979126,0.042459845542907715,0.8360541918122759,0.03607445083534623,0.10282353383893887,0.5377166100913647
1714155286772638000,3.499637939453125,0.34238922595977783,0.31908199191093445,0.2892150580883026,0.1356610506772995,-0.1745402067899704,-0.9752598404884338,-0.036600977182388306,-0.008122816681861877,0.031168103218078613,0.8350835662485205,0.03678833718722233,0.10496041181170643,0.538762805768598
1714155286782626800,3.509626708984375,0.3666452467441559,0.34280863404273987,0.32892611622810364,0.13828684389591217,-0.17835299670696259,-0.9742006659507751,-0.04458262026309967,-0.008689269423484802,0.028613567352294922,0.8340175350132588,0.03752685088348977,0.10719794726290369,0.5399212456888824
1714155286792617000,3.519616943359375,0.40003541111946106,0.36140814423561096,0.3655872046947479,0.14104022085666656,-0.1825246810913086,-0.9730325937271118,-0.05285966396331787,-0.0016337037086486816,0.028132081031799316,0.8328079403808036,0.038352430965445175,0.10960294711325025,0.541245764117297
1714155286802605800,3.529605712890625,0.46233421564102173,0.39547717571258545,0.3601484000682831,0.14400137960910797,-0.187148779630661,-0.9717195630073547,-0.05098380148410797,0.01325957477092743,0.03446376323699951,0.8315375554852111,0.03929939322123968,0.11223087604359488,0.5425910488414825
1714155286812596200,3.53959619140625,0.5844851732254028,0.45095375180244446,0.40139278769493103,0.14732526242733002,-0.1927071213722229,-0.9701336026191711,-0.05217145383358002,0.04860307276248932,0.03776061534881592,0.8301776679960307,0.04052765833051231,0.11528530255206548,0.5439410034314456
1714155286822585300,3.54958544921875,0.6703380346298218,0.49581655859947205,0.44444698095321655,0.15107575058937073,-0.19946017861366272,-0.9681899547576904,-0.06286469101905823,0.061719030141830444,0.04129481315612793,0.8286085167981847,0.04210565415949138,0.11887870672155726,0.5454381594121709
1714155286832575200,3.5595751953125,0.6648087501525879,0.5011905431747437,0.44843772053718567,0.154951810836792,-0.2066049575805664,-0.9660767912864685,-0.0652606338262558,0.04177945852279663,0.035351693630218506,0.826942537459948,0.04378895836980087,0.12265456887533867,0.546995737665363
1714155286842564400,3.569564453125,0.6832045912742615,0.5124613046646118,0.4452437460422516,0.15888603031635284,-0.2137356847524643,-0.9638839364051819,-0.05443960428237915,0.03339199721813202,0.03045809268951416,0.8252581084321405,0.045436765089167996,0.126465501979067,0.5485352347072833
1714155286852554200,3.57955419921875,0.6927892565727234,0.5060880780220032,0.47255846858024597,0.16280008852481842,-0.2211121916770935,-0.9615641236305237,-0.04233194887638092,0.03481757640838623,0.03047281503677368,0.8235213794890167,0.04717489492981698,0.13035519819441302,0.5500859214105532
1714155286862543400,3.58954345703125,0.6137384176254272,0.49043962359428406,0.5106759667396545,0.1664392501115799,-0.22817832231521606,-0.9592875838279724,-0.0276605486869812,0.026075616478919983,0.023954331874847412,0.8216757841787486,0.04881673496273366,0.13406396354037486,0.5518084599940699
1714155286872533200,3.599533203125,0.5455955862998962,0.479753702878952,0.49475163221359253,0.16988950967788696,-0.23454855382442474,-0.9571439623832703,-0.011564314365386963,0.004918992519378662,0.029424846172332764,0.8198114988798236,0.05019229385398699,0.13750913821630514,0.5536072512023218
1714155286882522400,3.6095224609375,0.5487061142921448,0.46910637617111206,0.5033071637153625,0.17322371900081635,-0.24052584171295166,-0.9550606608390808,-0.006567224860191345,0.0014511197805404663,0.034955739974975586,0.8179796091957265,0.05142625021092255,0.140801335319565,0.5553732727530581
1714155286892512300,3.61951220703125,0.556759238243103,0.46980732679367065,0.5152938365936279,0.17641426622867584,-0.24671709537506104,-0.9528948664665222,-0.017204061150550842,0.0038123875856399536,0.026320219039916992,0.8160772858819952,0.052764366885231125,0.14411272703348682,0.5571939790754856
1714155286902501400,3.62950146484375,0.5587167143821716,0.49213606119155884,0.4984324872493744,0.17970368266105652,-0.25287240743637085,-0.9506640434265137,-0.03051850199699402,0.003726869821548462,0.018886148929595947,0.814165646769057,0.05404728425531602,0.14746820800794178,0.5589866521101665
1714155286912491300,3.6394912109375,0.6200679540634155,0.5122924447059631,0.5084912776947021,0.18317319452762604,-0.25934648513793945,-0.9482547044754028,-0.03717710077762604,0.026771992444992065,0.024579167366027832,0.8122313472069107,0.0554036497954692,0.15100692175421804,0.5607204334916295
1714155286922480400,3.64948046875,0.6244657039642334,0.5414801836013794,0.5292462110519409,0.18677008152008057,-0.2662481367588043,-0.9456367492675781,-0.042681336402893066,0.037289947271347046,0.032627105712890625,0.8101830362645728,0.05687033376172714,0.15474945225604275,0.5625136897320284
1714155286932470300,3.65947021484375,0.5611665844917297,0.5537354946136475,0.5249923467636108,0.19053329527378082,-0.27282950282096863,-0.9430063962936401,-0.03747236728668213,0.02232593297958374,0.03574937582015991,0.8081001715361196,0.05813077563391443,0.15848534869591566,0.5643377314133319
1714155286942459400,3.66945947265625,0.4691886007785797,0.5200201869010925,0.5281099677085876,0.19414788484573364,-0.27869388461112976,-0.9405510425567627,-0.020579159259796143,0.010642677545547485,0.05049067735671997,0.8060337753275124,0.05911195618052926,0.16195755006952006,0.5662021260599811
1714155286952449300,3.67944921875,0.3612626791000366,0.4694669842720032,0.5492091178894043,0.19726388156414032,-0.28363046050071716,-0.9384245872497559,-0.0042860060930252075,-0.012985140085220337,0.062463343143463135,0.8039836104370712,0.05981862229744253,0.16495283503361596,0.568174776267764
1714155286962438400,3.6894384765625,0.26269689202308655,0.4511984884738922,0.5751326084136963,0.19992442429065704,-0.28761979937553406,-0.9366456270217896,0.00643545389175415,-0.03728565573692322,0.07687395811080933,0.8019116405763722,0.060220390738916,0.16748337397064672,0.5703161016692083
1714155286972427300,3.69942724609375,0.21029093861579895,0.47386306524276733,0.5644429326057434,0.20258553326129913,-0.2909504175186157,-0.9350438117980957,-0.003046363592147827,-0.041614919900894165,0.09823662042617798,0.7998189820357807,0.06031784927398049,0.16982298610257127,0.5725482329460485
1714155286982417400,3.70941748046875,0.2123255431652069,0.47330912947654724,0.5749897956848145,0.20536409318447113,-0.2940342426300049,-0.9334717392921448,-0.018520206212997437,-0.021273434162139893,0.11549383401870728,0.7977293050074943,0.060265711086837884,0.1721400139411861,0.5747727592966168
1714155286992406300,3.71940625,0.19525176286697388,0.4351382851600647,0.6118016242980957,0.20785820484161377,-0.29717928171157837,-0.931922435760498,-0.02579033374786377,0.0034017860889434814,0.11855268478393555,0.795563052460704,0.06028739979526416,0.17436803067836718,0.5770966813299594
1714155287002396400,3.729396484375,0.1549147665500641,0.40290817618370056,0.6230515241622925,0.20987799763679504,-0.3000737726688385,-0.9305412173271179,-0.027947470545768738,0.0031529664993286133,0.1118462085723877,0.7933575087163487,0.06031226535016097,0.17632874398832465,0.5795294384755767
1714155287012385300,3.73938525390625,0.1396937370300293,0.4096052348613739,0.6256198287010193,0.21174609661102295,-0.30271947383880615,-0.9292601943016052,-0.03874194622039795,0.004043906927108765,0.10910028219223022,0.7911494177173677,0.06026258485692162,0.17815254720620363,0.5819901801073
1714155287022375400,3.74937548828125,0.1448216587305069,0.4141682982444763,0.6320825219154358,0.21365539729595184,-0.30536022782325745,-0.9279582500457764,-0.06642335653305054,0.008851408958435059,0.12179064750671387,0.7889027868321277,0.06017931873852526,0.17999813501338308,0.584475406847309
1714155287032364300,3.7593642578125,0.11169485747814178,0.39572271704673767,0.6355014443397522,0.21544772386550903,-0.30789560079574585,-0.9267052412033081,-0.08504611253738403,0.021655917167663574,0.1321648359298706,0.7866423116194279,0.06007148207867644,0.18176579566282988,0.5869807863888649
1714155287042354400,3.7693544921875,0.129402756690979,0.379747211933136,0.6472873091697693,0.21706359088420868,-0.3103349208831787,-0.925513744354248,-0.08850830793380737,0.037660300731658936,0.13629865646362305,0.7843721838160927,0.05996208562055691,0.1834330650054169,0.5895058744823153
1714155287052343300,3.77934326171875,0.18174105882644653,0.2966861426830292,0.6786772012710571,0.21813607215881348,-0.3132462501525879,-0.9242799282073975,-0.08160044252872467,0.049620121717453,0.14400655031204224,0.7820557160786508,0.060192687059720404,0.18503207591253748,0.5920546156755627
1714155287062333400,3.78933349609375,0.16797399520874023,0.24236111342906952,0.6866801977157593,0.21844306588172913,-0.3163420557975769,-0.9231523871421814,-0.06616035103797913,0.05079331994056702,0.1370043158531189,0.7797318918079934,0.06071670117333053,0.1863794331111903,0.5946379423924706
1714155287072322300,3.799322265625,0.2019098550081253,0.2279382348060608,0.7206941246986389,0.21837840974330902,-0.3195452392101288,-0.9220638275146484,-0.057794928550720215,0.0699877142906189,0.12877464294433594,0.7773803141619805,0.06138240523491586,0.18761738934650793,0.5972535387214315
1714155287082312400,3.8093125,0.22183409333229065,0.22635819017887115,0.7999089956283569,0.21804147958755493,-0.3231765031814575,-0.92087721824646,-0.07505138218402863,0.09801778197288513,0.13674336671829224,0.774831170638431,0.06224692195429704,0.18890927036097893,0.6000626468858619
1714155287092301300,3.81930126953125,0.22123967111110687,0.24546769261360168,0.8297529220581055,0.21752186119556427,-0.3269617557525635,-0.91966313123703,-0.09499379992485046,0.1008264422416687,0.13507145643234253,0.7720774049768167,0.0631634883827859,0.1902072902483084,0.6030987111576424
1714155287102291500,3.82929150390625,0.2705477774143219,0.2242114096879959,0.8300496935844421,0.21699509024620056,-0.33098360896110535,-0.918347954750061,-0.09062179923057556,0.12196865677833557,0.1341530680656433,0.7692674261029671,0.06416261011527129,0.19159638540500035,0.6061366550209402
1714155287112280300,3.8392802734375,0.32304027676582336,0.20366911590099335,0.8948638439178467,0.21607930958271027,-0.3355664610862732,-0.9168996214866638,-0.07377585768699646,0.15999877452850342,0.11495870351791382,0.7663619137714154,0.06548450566237829,0.19303360928936802,0.6092120458046146
1714155287122270500,3.8492705078125,0.3076293170452118,0.20631922781467438,0.9505932331085205,0.21479442715644836,-0.3405035734176636,-0.91538006067276,-0.07047681510448456,0.1516607701778412,0.08014452457427979,0.7632290441851539,0.06699349889215836,0.19447838851850566,0.6125122678020527
1714155287132259300,3.85925927734375,0.22541700303554535,0.24997270107269287,0.9502305388450623,0.21362678706645966,-0.3449793756008148,-0.9139763712882996,-0.07728952169418335,0.11649426817893982,0.062062978744506836,0.7600006325139954,0.06823615876386085,0.19584595911548908,0.6159441354111614
1714155287142249500,3.86924951171875,0.16311527788639069,0.2687133550643921,0.9593130350112915,0.21270568668842316,-0.34874123334884644,-0.9127627611160278,-0.08274659514427185,0.09727632999420166,0.05169403553009033,0.7567472236824688,0.06908803491842752,0.19709254546318017,0.6194472404142743
1714155287152238300,3.87923828125,0.12739962339401245,0.2762727439403534,1.0130516290664673,0.21174916625022888,-0.3521634340286255,-0.9116705656051636,-0.08459770679473877,0.0930844247341156,0.03734201192855835,0.7533676619949252,0.06976329496376396,0.19823673669545772,0.6231150995521753
1714155287162228200,3.889228271484375,0.06343162059783936,0.25738319754600525,1.0478638410568237,0.21052928268909454,-0.3552226424217224,-0.9107657670974731,-0.07391735911369324,0.07481184601783752,0.020827412605285645,0.7498433761068248,0.07031807480314697,0.1991795201619461,0.6269910492069928
1714155287172217300,3.89921728515625,-0.012760620564222336,0.2486051619052887,1.0458662509918213,0.20908738672733307,-0.3576086759567261,-0.9101639986038208,-0.05173876881599426,0.06547912955284119,0.0120011568069458,0.7462997319654673,0.07065160559747335,0.19981581099672296,0.6309664134336839
1714155287182207200,3.909207275390625,-0.054318398237228394,0.2571437954902649,1.0667754411697388,0.20758530497550964,-0.35945969820022583,-0.9097785949707031,-0.04268358647823334,0.07556989789009094,0.010608673095703125,0.7427241747826818,0.07077190572694206,0.20025496427691236,0.6350196719698683
1714155287192196400,3.9191962890625,-0.09429270774126053,0.2581784427165985,1.0915385484695435,0.20607231557369232,-0.36102941632270813,-0.9095008969306946,-0.054277896881103516,0.07184481620788574,0.013718485832214355,0.7390521091026366,0.07075255795171971,0.20060810890497421,0.639180918691934
1714155287202186200,3.929186279296875,-0.16055017709732056,0.28050824999809265,1.0957976579666138,0.20452181994915009,-0.3620694577693939,-0.9094374775886536,-0.06722325086593628,0.058373719453811646,0.00872647762298584,0.7353206899004745,0.07051212192250009,0.20077175357506713,0.6434455911978416
1714155287212175400,3.93917529296875,-0.1549178659915924,0.31323981285095215,1.0999928712844849,0.20327128469944,-0.362838476896286,-0.9094113707542419,-0.0767606794834137,0.05854767560958862,0.012133538722991943,0.7315432994196516,0.07005709670876048,0.2009634963084131,0.6477268011205974
1714155287222165200,3.949165283203125,-0.14014579355716705,0.26674821972846985,1.1298303604125977,0.20189589262008667,-0.3637623190879822,-0.9093486666679382,-0.06934279203414917,0.07358589768409729,0.03262442350387573,0.7276719845500097,0.06968537851158615,0.20117060711843052,0.6520488666519605
1714155287232154400,3.959154296875,-0.1360434591770172,0.18952080607414246,1.1662150621414185,0.19977831840515137,-0.36479681730270386,-0.9094019532203674,-0.031534940004348755,0.07974734902381897,0.04015457630157471,0.7237492982374196,0.06959397044624845,0.2011360371217401,0.6564204997448949
1714155287242144300,3.969144287109375,-0.1314023733139038,0.11462872475385666,1.233103632926941,0.19675368070602417,-0.36598896980285645,-0.9095823764801025,0.018654614686965942,0.09052199125289917,0.06009507179260254,0.7197001316000329,0.06983868960210439,0.20082673993855266,0.6609257491273638
1714155287252133400,3.97913330078125,-0.1448715776205063,0.03775285556912422,1.3000153303146362,0.19277876615524292,-0.3671764135360718,-0.909954845905304,0.04550245404243469,0.10683092474937439,0.07450562715530396,0.715478369844102,0.07036123791621868,0.2001796171375551,0.6656335427308017
1714155287262123300,3.989123291015625,-0.1300676465034485,-0.010830660350620747,1.3456056118011475,0.18798628449440002,-0.3684360384941101,-0.9104482531547546,0.055345579981803894,0.12377661466598511,0.07544159889221191,0.7111023092744891,0.07116273465064055,0.19927804819881703,0.6704904916915423
1714155287272112400,3.9991123046875,-0.1588609516620636,-0.02297227829694748,1.4146864414215088,0.18282456696033478,-0.36967194080352783,-0.9109982252120972,0.04753735661506653,0.15141016244888306,0.07908910512924194,0.70649100897291,0.07203700425935576,0.19827140078475888,0.6755511311011142
1714155287282102300,4.009102294921875,-0.22203496098518372,-0.13022230565547943,1.4308606386184692,0.17687664926052094,-0.37050366401672363,-0.9118342399597168,0.03120744228363037,0.17639654874801636,0.0784602165222168,0.7018143185321333,0.07303043167343813,0.1968487567146372,0.6807156127244589
1714155287292091400,4.01909130859375,-0.26405084133148193,-0.1895117312669754,1.4853379726409912,0.17001625895500183,-0.37078553438186646,-0.9130238890647888,0.020382896065711975,0.19050291180610657,0.09792989492416382,0.6971031929656226,0.07414919705900476,0.1949101431889124,0.6859731232697367
1714155287302081300,4.029081298828125,-0.29612985253334045,-0.24372170865535736,1.5881577730178833,0.1623636782169342,-0.3707796037197113,-0.91441810131073,0.015675842761993408,0.19084793329238892,0.13829511404037476,0.6921249183611498,0.0754022129674362,0.19262774143101039,0.6914998642518132
1714155287312070400,4.0390703125,-0.34327980875968933,-0.31737780570983887,1.6415976285934448,0.1538076102733612,-0.37042468786239624,-0.9160397052764893,0.03447054326534271,0.19153064489364624,0.17122775316238403,0.6869036314784424,0.07682560165515685,0.1899420241733631,0.6972683672118195
