time,seconds_elapsed,rotationRateX,rotationRateY,rotationRateZ,gravityX,gravityY,gravityZ,accelerationX,accelerationY,accelerationZ,quaternionW,quaternionX,quaternionY,quaternionZ
1713524590845003500,0.10000341796875,0.10439202934503555,0.04177572578191757,0.02422911860048771,-0.8167760968208313,0.371913343667984,-0.44108647108078003,-0.010631680488586426,-0.011042952537536621,0.0012366175651550293,0.848848170406294,-0.21906941120073334,-0.4811084669581212,9.540979117872439e-18
1713524590854993700,0.10999365234375,0.08222856372594833,0.05103819817304611,0.01624915562570095,-0.8167884945869446,0.3711381256580353,-0.4417160451412201,-0.0077201128005981445,-0.015120059251785278,0.0004929304122924805,0.8490335976315168,-0.2185090413160285,-0.48103614588778965,0.00009884486954057307
1713524590864982500,0.119982421875,0.08771947026252747,0.05419617518782616,0.0022268146276474,-0.8167736530303955,0.37048453092575073,-0.4422916769981384,-0.0006396174430847168,-0.018128573894500732,0.0011600852012634277,0.8492030242769067,-0.21803542564969972,-0.48095187963640257,0.00017864046976703418
1713524590874972700,0.12997265625,0.087351955473423,0.044264983385801315,-0.002752231201156974,-0.8167124390602112,0.37004467844963074,-0.442772775888443,-0.0039052367210388184,-0.017505645751953125,0.0037163496017456055,0.8493446185016054,-0.21767460976906458,-0.48086524262505476,0.00029444334912387144
1713524590884961500,0.13996142578125,0.11356677860021591,0.05752619355916977,-0.011273814365267754,-0.8165959715843201,0.3696121275424957,-0.4433482885360718,-0.004250466823577881,-0.006361424922943115,0.0035290122032165527,0.8495138484639819,-0.2172810305185678,-0.4807440237998772,0.0004634904866183385
1713524590894951700,0.14995166015625,0.12189634889364243,0.06975968182086945,-0.021296286955475807,-0.8164722919464111,0.36894339323043823,-0.44413262605667114,0.003773987293243408,0.0027759671211242676,0.0022075772285461426,0.849744671389238,-0.21675614481218186,-0.4805730500412514,0.0005916252137549882
1713524590904977000,0.159976806640625,0.11869362741708755,0.07714329659938812,-0.023029739037156105,-0.8163286447525024,0.3682577908039093,-0.444965124130249,-0.00027614831924438477,0.007139027118682861,-0.003750026226043701,0.8499898507791348,-0.21662480895957156,-0.48019904515829587,1.0408340855860843e-17
1713524590914969000,0.169968994140625,0.10356288403272629,0.08366458117961884,-0.020935695618391037,-0.8161433339118958,0.3675888776779175,-0.4458570182323456,-0.003970801830291748,0.0020095109939575195,-0.0038499832153320312,0.8502520355805459,-0.2161646586477945,-0.479942011023845,6.071532165918825e-18
1713524590924959000,0.179958984375,0.0704808309674263,0.06994877010583878,-0.022833731025457382,-0.8160134553909302,0.36682063341140747,-0.4467264413833618,-0.0013234615325927734,-0.0005486905574798584,-0.004140228033065796,0.8505075662072011,-0.21566562200426218,-0.4797135726790545,-0.00003111185359243752
1713524590934947800,0.18994775390625,0.04607072100043297,0.05386114865541458,-0.01279760804027319,-0.8159497976303101,0.36617910861968994,-0.4473688006401062,-0.0008990168571472168,0.004289031028747559,-0.004154026508331299,0.8506964136702104,-0.21528589986314914,-0.47954935270201365,-0.00011134014739358749
1713524590944938000,0.19993798828125,0.035825543105602264,0.03982096537947655,-0.0008687771623954177,-0.8159101009368896,0.36568397283554077,-0.447845995426178,0.0011060237884521484,-0.002768903970718384,-0.003417491912841797,0.8508366676254727,-0.21499392702469486,-0.47943155365112405,-0.0001725700942880261
1713524590954926800,0.2099267578125,0.05008735507726669,0.03134438768029213,0.003875178284943104,-0.8159047365188599,0.36525964736938477,-0.4482019543647766,0.008699417114257812,-0.006296604871749878,-0.003717660903930664,0.8509412894544944,-0.21472027510775743,-0.4793685741700057,-0.00017633786276048148
1713524590964917000,0.2199169921875,0.07273726910352707,0.031871162354946136,0.011207392439246178,-0.8158151507377625,0.3650037348270416,-0.4485730826854706,0.007236778736114502,-0.006559550762176514,-0.0034990310668945312,0.8510501930125349,-0.2144750773150899,-0.47928478554925724,-0.00005674155510352729
1713524590974907000,0.229906982421875,0.11956225335597992,0.025712335482239723,0.02324867621064186,-0.8155806660652161,0.3648837208747864,-0.44909700751304626,-0.00013887882232666016,-0.007522851228713989,-0.002517402172088623,0.8512041605826367,-0.21418826350603062,-0.4791397375140694,0.00025862227281213575
1713524590984896000,0.23989599609375,0.15108582377433777,0.03021813929080963,0.008494498208165169,-0.8153316974639893,0.36460545659065247,-0.4497743546962738,-0.004522979259490967,-0.00010353326797485352,-0.001351684331893921,0.8514027516558096,-0.2137350559858698,-0.47898866858454153,0.0006850004028303297
1713524590994886000,0.249885986328125,0.15824854373931885,0.03931789472699165,-0.000590077368542552,-0.8151629567146301,0.3640010952949524,-0.4505689740180969,-0.005530893802642822,0.00910678505897522,-0.0051805078983306885,0.851635639178615,-0.2131109933121428,-0.4788519759096333,0.0010600923200122132
1713524591004875000,0.259875,0.15726503729820251,0.06149217113852501,-0.015173546969890594,-0.8149439692497253,0.3632684350013733,-0.45155537128448486,-0.010174989700317383,0.009549498558044434,-0.004117816686630249,0.8519247239791073,-0.21243918891838062,-0.47863546246495164,0.0013622611574241007
1713524591014865000,0.269864990234375,0.11803258210420609,0.05061875283718109,-0.024580031633377075,-0.8147395849227905,0.36255499720573425,-0.452496737241745,-0.013705790042877197,0.002313166856765747,-0.0025966763496398926,0.8522006349444149,-0.21183327453926948,-0.4784122649656725,0.0015740577739696865
1713524591024854000,0.27985400390625,0.05860414355993271,0.04406844079494476,-0.021106472238898277,-0.8146114349365234,0.36197906732559204,-0.4531879425048828,-0.011880815029144287,0.002004086971282959,-0.0049266517162323,0.8524032105777624,-0.2114083627610897,-0.4782389855513127,0.0016401021875445834
1713524591034844000,0.289843994140625,0.02268044464290142,0.036370839923620224,-0.020126961171627045,-0.8144842982292175,0.36163946986198425,-0.45368748903274536,-0.00868159532546997,-0.011023014783859253,-0.0007802844047546387,0.8525498572786653,-0.21119268037856265,-0.4780731179257479,0.0016052877392580707
1713524591044833800,0.299833740234375,0.00844744686037302,0.019123408943414688,-0.014841917902231216,-0.8144239783287048,0.3614083230495453,-0.4539799690246582,-0.0010210871696472168,-0.0143013596534729,0.006164968013763428,0.8526357901856453,-0.21107588175449687,-0.4779717456978983,0.0015342200623510507
1713524591054823000,0.309822998046875,0.02620290033519268,0.0019577383063733578,-0.007080733776092529,-0.8144629597663879,0.3611823320388794,-0.45408958196640015,0.0010321736335754395,-0.008673757314682007,0.0062593817710876465,0.8526678798512414,-0.2109639746134464,-0.47796382377535024,0.0014832874313287345
1713524591064812800,0.319812744140625,0.048984114080667496,-0.007425377145409584,-0.004320899955928326,-0.8145219087600708,0.360990971326828,-0.4541359841823578,0.0016099810600280762,-0.007444858551025391,0.008045285940170288,0.8526813365402426,-0.21080400553018294,-0.478010131709564,0.0015623966824509328
1713524591074802000,0.329802001953125,0.0674709752202034,-0.004686049185693264,-0.0047067916020751,-0.814519464969635,0.36086079478263855,-0.45424383878707886,0.0015617609024047852,0.0001468658447265625,0.006108492612838745,0.8527126254327317,-0.21061771268305937,-0.4780358316373632,0.0017446625030021884
1713524591084791800,0.339791748046875,0.07974788546562195,0.008701128885149956,-0.011763103306293488,-0.8145166039466858,0.36059847474098206,-0.45445749163627625,-0.0018745064735412598,0.009610265493392944,0.000889897346496582,0.8527749890888414,-0.21034924060645172,-0.4780423125429623,0.001921731391911521
1713524591094781000,0.349781005859375,0.07122023403644562,0.018038704991340637,-0.01323869451880455,-0.8145435452461243,0.36015555262565613,-0.45476004481315613,-0.007218480110168457,0.008405208587646484,-0.004514247179031372,0.8528633177943947,-0.21000766059728815,-0.47803425941169614,0.0020290301599936705
1713524591104769500,0.35976953125,0.03746679425239563,0.011505969800055027,-0.022242309525609016,-0.8145619034767151,0.3597557246685028,-0.45504358410835266,-0.009397387504577637,0.004547834396362305,-0.013355433940887451,0.8529463504704194,-0.2097363638288976,-0.47800508531852887,0.002058548048941071
1713524591114759400,0.369759521484375,0.027843087911605835,0.025168785825371742,-0.045504890382289886,-0.8146923184394836,0.35917341709136963,-0.4552699625492096,-0.009144902229309082,-0.0021483004093170166,-0.017828792333602905,0.8530129807984126,-0.20945367956686425,-0.4780106458817927,0.0019246434175884631
1713524591124748500,0.37974853515625,0.04328649491071701,0.04346177354454994,-0.05665341392159462,-0.8148203492164612,0.35837411880493164,-0.45567071437835693,-0.010558068752288818,-0.004690676927566528,-0.013125032186508179,0.8531310116680318,-0.20909361639879895,-0.47795868027543037,0.0016796698861541203
1713524591134738400,0.389738525390625,0.030002113431692123,0.029566463083028793,-0.05753505229949951,-0.8149137496948242,0.35769960284233093,-0.45603352785110474,-0.004269540309906006,-0.01387333869934082,-0.007925242185592651,0.8532377194368793,-0.20879285545413137,-0.47790039205846624,0.001464439919834838
1713524591144727600,0.3997275390625,0.0370192751288414,0.04808102548122406,-0.05873000994324684,-0.8150001168251038,0.3570580780506134,-0.4563818871974945,0.00781017541885376,0.0003485679626464844,-0.0016106963157653809,0.8533401956537899,-0.2085125751296025,-0.47784051569590935,0.0012491058313160884
1713524591154717400,0.409717529296875,0.050625793635845184,0.07209048420190811,-0.05235886573791504,-0.8149356842041016,0.35650336742401123,-0.45693033933639526,0.0059299468994140625,0.0055876970291137695,0.006399333477020264,0.8535011182369563,-0.20824844222161046,-0.47766873483915895,0.001070641764318142
1713524591164707300,0.419707275390625,0.07464804500341415,0.08855600655078888,-0.04047291353344917,-0.8146832585334778,0.35604092478752136,-0.4577402174472809,-0.005720794200897217,-0.004753082990646362,0.008735060691833496,0.8537383447927825,-0.20796210250184088,-0.47736952006012495,0.0009955475958764158
1713524591174696400,0.429696533203125,0.07184729725122452,0.1043725237250328,-0.03963528200984001,-0.8143475651741028,0.3555276691913605,-0.4587353765964508,-0.007414519786834717,0.011705577373504639,0.011835932731628418,0.8540297682421101,-0.207618395748124,-0.47699780776979833,0.000946653202136678
1713524591184686300,0.439686279296875,0.0561855174601078,0.12937933206558228,-0.04207713529467583,-0.8139180541038513,0.35496097803115845,-0.45993489027023315,-0.005707740783691406,0.016682088375091553,0.008442580699920654,0.8543809303322373,-0.20727336824124395,-0.4765189500858867,0.0008185844113409754
1713524591194675500,0.449675537109375,0.038412801921367645,0.14509625732898712,-0.04533690959215164,-0.8134095668792725,0.35432279109954834,-0.461324542760849,-0.009939432144165039,0.018174797296524048,0.008565723896026611,0.8547876961754927,-0.2069310818225149,-0.47593829768985524,0.0005867345441649772
1713524591204665300,0.459665283203125,0.012351108714938164,0.17324772477149963,-0.049274127930402756,-0.81284499168396,0.3537263572216034,-0.4627750515937805,-0.012853860855102539,0.013690024614334106,0.0012577176094055176,0.8552119773330501,-0.20665818644585926,-0.47529449921043054,0.00026640875799050813
1713524591214654500,0.469654541015625,-0.020761093124747276,0.16651073098182678,-0.05400117114186287,-0.8123189210891724,0.3531198501586914,-0.46415966749191284,-0.009427845478057861,0.006026238203048706,-0.01006820797920227,0.8556165606808835,-0.20647218168212556,-0.47464660293973415,-0.0002129846117300744
1713524591224644400,0.479644287109375,-0.02510763704776764,0.1576453298330307,-0.046445783227682114,-0.8117120265960693,0.35294362902641296,-0.46535420417785645,-0.009271860122680664,0.0010450184345245361,-0.008980512619018555,0.8559654358465312,-0.20650337416988965,-0.4740034378592406,-0.0006074525533575834
1713524591234634800,0.489634765625,-0.172578364610672,0.007359428331255913,-0.04702548682689667,-0.8113632798194885,0.35308727622032166,-0.46585312485694885,-0.006782472133636475,0.0032512247562408447,-0.006971001625061035,0.8561107582934163,-0.20676999495402906,-0.47362391107658536,-0.0010015973120467772
1713524591244623400,0.499623291015625,0.06738122552633286,-0.013433734886348248,0.03647366538643837,-0.8116918206214905,0.353624165058136,-0.4648725092411041,0.0003209710121154785,-0.0015733838081359863,-0.014345049858093262,0.8558244159222703,-0.2071366022674057,-0.4739811998671682,-0.0009715236752322626
1713524591254613800,0.50961376953125,-0.05662369728088379,0.0021060763392597437,0.01890619285404682,-0.8116388916969299,0.35413414239883423,-0.46457672119140625,0.02723020315170288,-0.04055073857307434,-0.015480101108551025,0.8557382102197701,-0.2073611002507418,-0.47403903820869914,-0.0008010900026093524
1713524591264602400,0.519602294921875,0.030573522672057152,0.019155368208885193,-0.01528133824467659,-0.8116154074668884,0.35418954491615295,-0.46457526087760925,0.0488438606262207,-0.11909738183021545,-0.040490686893463135,0.8557376141294306,-0.2074270597802837,-0.47401095619429806,-0.000861515169903751
1713524591274592500,0.529592529296875,0.01835658960044384,0.021209729835391045,-0.0035899952054023743,-0.8115344047546387,0.3540765047073364,-0.4648028314113617,-0.03715938329696655,0.043277591466903687,-0.007807642221450806,0.855804113867305,-0.20733371768676953,-0.47393176019695404,-0.0008414476302621046
1713524591284582700,0.539582763671875,0.0039132023230195045,0.04103323444724083,-0.010825537145137787,-0.8114020228385925,0.3539884388446808,-0.4651009738445282,-0.010512590408325195,0.0010072886943817139,-0.01227027177810669,0.8558911926516158,-0.2072771687000033,-0.473799213765761,-0.0008705806877789945
1713524591294571500,0.549571533203125,-0.022290226072072983,0.05904312804341316,-0.015833012759685516,-0.811195969581604,0.35391783714294434,-0.46551400423049927,0.005303084850311279,-0.041982412338256836,-0.008256137371063232,0.8560117105545738,-0.20728123951350252,-0.4735794359866075,-0.0010056407339891433
1713524591304561700,0.559561767578125,-0.04091344401240349,0.05941144376993179,-0.023994268849492073,-0.8109949231147766,0.35385674238204956,-0.4659106433391571,-0.007410228252410889,-0.022145956754684448,0.004500150680541992,0.8561272496303344,-0.20734602965294066,-0.4733416287834529,-0.0012384513790439765
1713524591314550500,0.569550537109375,-0.032596126198768616,0.05313171073794365,-0.029806550592184067,-0.8108195662498474,0.35380783677101135,-0.466252863407135,-0.005434095859527588,-0.02008289098739624,0.005879908800125122,0.8562267273470157,-0.20744287452307272,-0.4731184022772718,-0.0015095960577103345
1713524591324540700,0.579540771484375,-0.002672049216926098,0.04075227305293083,-0.029976729303598404,-0.8106867671012878,0.3536354899406433,-0.46661442518234253,0.0004145503044128418,-0.02052086591720581,0.010330796241760254,0.8563318631159684,-0.20744053976001747,-0.47292834217691393,-0.0017342906927642469
1713524591334529500,0.589529541015625,0.014988170936703682,0.029088160023093224,-0.03935478627681732,-0.8106537461280823,0.3531561493873596,-0.46703454852104187,0.0018921494483947754,-0.02347475290298462,0.009896457195281982,0.8564540536713119,-0.20724760412457816,-0.4727908171103042,-0.0019458347255709666
1713524591344519700,0.599519775390625,0.04865478724241257,0.02382149174809456,-0.04746224731206894,-0.8107656240463257,0.3520562946796417,-0.46767035126686096,0.005071043968200684,-0.008580952882766724,0.006519198417663574,0.8566389150804726,-0.20672270919593666,-0.4726844076206257,-0.002239483893783791
1713524591354509600,0.609509521484375,0.06637130677700043,0.0108305923640728,-0.043863847851753235,-0.8108302354812622,0.3515598773956299,-0.46793150901794434,0.0038997530937194824,0.01024124026298523,0.008657246828079224,0.856714934464909,-0.2064344770764838,-0.472672243579975,-0.0022754988722770387
1713524591364498700,0.619498779296875,0.06345301866531372,0.015629341825842857,-0.04253013804554939,-0.8109298944473267,0.3509008288383484,-0.4682534635066986,0.0012832880020141602,0.007222950458526611,0.0038064122200012207,0.856808779863191,-0.20605603479130455,-0.47266708488495357,-0.00232765844443909
1713524591374488600,0.629488525390625,0.062069982290267944,0.021880047395825386,-0.04056166112422943,-0.8110404014587402,0.35006052255630493,-0.4686909317970276,0.005895137786865234,0.004370629787445068,-0.002729356288909912,0.8569361667481187,-0.2055948564734781,-0.47263653584231785,-0.002436149426831714
1713524591384477700,0.639477783203125,0.08082183450460434,0.027218885719776154,-0.03549925982952118,-0.8111197352409363,0.3493077754974365,-0.46911486983299255,0.0012442469596862793,0.008144617080688477,-0.005647063255310059,0.8570595870203976,-0.20515628083754425,-0.4726028572929763,-0.002491031483494454
1713524591394467600,0.649467529296875,0.12419343739748001,0.02599063701927662,-0.03741786628961563,-0.8111656308174133,0.348451167345047,-0.4696723520755768,-0.0035926103591918945,0.0009446144104003906,-0.013771891593933105,0.8572223610302641,-0.204599810635061,-0.4725491929684026,-0.002458902468685524
1713524591404457500,0.65945751953125,0.14828863739967346,0.034322068095207214,-0.03578641265630722,-0.8112048506736755,0.34743550419807434,-0.4703564941883087,-0.0014324784278869629,0.006705731153488159,-0.019557476043701172,0.8574221564072952,-0.20389296766617834,-0.4724927598265352,-0.0023377925081289387
1713524591414446600,0.669446533203125,0.17699481546878815,0.047212034463882446,-0.044178836047649384,-0.8111991882324219,0.34624791145324707,-0.4712412357330322,-0.000049591064453125,0.01228785514831543,-0.019908666610717773,0.857680491472317,-0.20305662728134927,-0.4723847938353652,-0.0021883589727141094
1713524591424436500,0.6794365234375,0.17897434532642365,0.04556726664304733,-0.04168345406651497,-0.8111564517021179,0.3450625538825989,-0.4721831679344177,0.0009148120880126953,0.016784340143203735,-0.015426665544509888,0.857955448266344,-0.202192082074212,-0.4722571064934786,-0.0019915469117244063
1713524591434425600,0.689425537109375,0.17605966329574585,0.043352849781513214,-0.021312600001692772,-0.8110076785087585,0.3442835807800293,-0.47300681471824646,0.0012389421463012695,0.013092517852783203,-0.017456471920013428,0.8581961199349165,-0.20151303977820448,-0.47211131575900095,-0.0016858840281866127
1713524591444415500,0.69941552734375,0.16485866904258728,0.03333856537938118,-0.011095115914940834,-0.8108399510383606,0.3436071276664734,-0.4737855792045593,0.007113754749298096,0.0009821057319641113,-0.016250431537628174,0.8584236319358848,-0.20086589479764935,-0.471974681035647,-0.0013230968598060048
1713524591454404600,0.709404541015625,0.16918574273586273,0.029034629464149475,-0.0068722078576684,-0.8106420636177063,0.34296995401382446,-0.47458523511886597,0.013263523578643799,-0.005338698625564575,-0.011636078357696533,0.8586569737192521,-0.20023078295974917,-0.471820957315104,-0.0009422812930106818
1713524591464394500,0.71939453125,0.19702163338661194,0.018975870683789253,0.0003718564985319972,-0.8104629516601562,0.3422752320766449,-0.47539201378822327,0.015296876430511475,0.0029549002647399902,-0.012324631214141846,0.8588922154450265,-0.1995197153422639,-0.4716946801220027,-0.0004840407414571802
1713524591474384600,0.729384521484375,0.2067570686340332,0.016621902585029602,0.010725094005465508,-0.8103066086769104,0.3414384722709656,-0.4762592911720276,0.010349392890930176,0.0006940662860870361,-0.016431719064712524,0.8591446706706549,-0.1986959226061127,-0.4715827402875984,0.000022663340554531647
1713524591484373500,0.73937353515625,0.22100551426410675,0.02381882816553116,0.015628773719072342,-0.8100545406341553,0.3406808376312256,-0.47722968459129333,0.0072591304779052734,-0.001996755599975586,-0.017002463340759277,0.859426837207285,-0.19786614254521187,-0.47141716203748624,0.0006129308563426615
1713524591494363600,0.74936376953125,0.2261858880519867,0.020371099933981895,0.02899857424199581,-0.8097454309463501,0.3399936854839325,-0.4782432019710541,0.004600167274475098,0.013750821352005005,-0.008039116859436035,0.8597208596351259,-0.19704154861384557,-0.4712250203685386,0.0012650339886398475
1713524591504352500,0.7593525390625,0.2137683779001236,0.02401643618941307,0.04517248272895813,-0.8093814849853516,0.3395344316959381,-0.4791847765445709,-0.0026454925537109375,0.012134850025177002,-0.004869788885116577,0.8599932782574637,-0.1963101558123435,-0.47103071316738027,0.0019994631735327224
1713524591514342700,0.7693427734375,0.21257758140563965,0.018312742933630943,0.043300412595272064,-0.8090021014213562,0.3390941023826599,-0.48013609647750854,-0.0012700557708740234,0.0052814781665802,-0.0017211735248565674,0.860267653858594,-0.19558874374578192,-0.47082586543410637,0.0027364245648115676
1713524591524332500,0.77933251953125,0.19180385768413544,0.009590623900294304,0.04623335227370262,-0.8086832165718079,0.3385811150074005,-0.481034517288208,0.0008524060249328613,0.004924744367599487,0.004563570022583008,0.8605262646307721,-0.19485840429863094,-0.470651619507598,0.003420322233677164
1713524591534321700,0.78932177734375,0.18739306926727295,0.0017281738109886646,0.05109735205769539,-0.8084287047386169,0.33808526396751404,-0.48181065917015076,0.0017270445823669434,-0.0009270608425140381,0.006804525852203369,0.8607489310352233,-0.19415451472042017,-0.4705302284489197,0.004089741703251155
1713524591544311600,0.7993115234375,0.2001940757036209,0.002344429260119796,0.05214210972189903,-0.8081339597702026,0.3377327024936676,-0.4825517237186432,0.0002573728561401367,-0.00861591100692749,0.0111314058303833,0.8609603359384936,-0.19350445174509814,-0.47040425152867227,0.004818616715991761
1713524591554300700,0.80930078125,0.23722714185714722,0.003942858427762985,0.04564346373081207,-0.8078687787055969,0.3371531069278717,-0.48340025544166565,-0.0016862154006958008,-0.007242858409881592,0.01243773102760315,0.8612022327037889,-0.1927126774781515,-0.47027831159876793,0.0055540704432488555
1713524591564290600,0.81929052734375,0.27610984444618225,-0.0034495440777391195,0.04702351242303848,-0.807648241519928,0.336295485496521,-0.48436543345451355,-0.004943430423736572,0.0021445155143737793,0.011144518852233887,0.8614767466352207,-0.19170510993989365,-0.4701770313362582,0.0063768380065505415
1713524591574279400,0.829279541015625,0.3031139671802521,0.005198006518185139,0.03835466131567955,-0.8073883056640625,0.335519939661026,-0.4853353500366211,-0.006927430629730225,0.005361378192901611,0.0031118690967559814,0.8617505314507421,-0.19067829268882897,-0.47007883420318497,0.00732398761176912
1713524591584269600,0.83926953125,0.3091138005256653,0.01216084137558937,0.02227342687547207,-0.8071911931037903,0.33448341488838196,-0.48637768626213074,-0.008055329322814941,0.008976668119430542,-0.0003929734230041504,0.8620447425252397,-0.18951853512718733,-0.46999349395838935,0.008230447904752443
1713524591594259500,0.849259521484375,0.29463744163513184,0.01630791462957859,0.019767392426729202,-0.8070400357246399,0.3333083987236023,-0.487434059381485,-0.012982547283172607,0.012089550495147705,0.0012279748916625977,0.8623428832734171,-0.18832737177573824,-0.46991038421735115,0.00904733629082894
1713524591604248600,0.85924853515625,0.2577531933784485,0.02208644337952137,0.028338510543107986,-0.8068768978118896,0.3323100805282593,-0.4883846938610077,-0.018379390239715576,-0.006290823221206665,-0.0018344223499298096,0.8626099041034714,-0.1872702013274575,-0.46982711762872714,0.009820432318012952
1713524591614238500,0.869238525390625,0.21500685811042786,0.021737301722168922,0.027868062257766724,-0.8066993355751038,0.33150994777679443,-0.4892212748527527,-0.01172107458114624,-0.027341246604919434,-0.0007079243659973145,0.8628444690401431,-0.18638917975418356,-0.4697322971095592,0.01049555246639077
1713524591624227600,0.8792275390625,0.21383346617221832,0.030832262709736824,0.027897091582417488,-0.8065547943115234,0.3306874930858612,-0.49001532793045044,-0.003183305263519287,-0.035735100507736206,0.0067999958992004395,0.8630671284809782,-0.18554981923968042,-0.46964199211900315,0.011076084494243245
1713524591634217500,0.889217529296875,0.23437047004699707,0.009333895519375801,0.03193504363298416,-0.8064641356468201,0.329830139875412,-0.49074190855026245,-0.0026483535766601562,-0.028347015380859375,0.010166376829147339,0.8632692650185366,-0.1846672658111052,-0.46960307514859917,0.011706694653391445
1713524591644207400,0.899207275390625,0.23227697610855103,0.006071257404983044,0.040254224091768265,-0.806366503238678,0.3291189670562744,-0.49137938022613525,0.0000616312026977539,-0.031236916780471802,0.0030676424503326416,0.8634436454790869,-0.1838204991577634,-0.46959591986977733,0.012438021079652684
1713524591654196500,0.909196533203125,0.21777920424938202,0.020798005163669586,0.025553975254297256,-0.8062053322792053,0.3284420073032379,-0.4920961856842041,0.005988776683807373,-0.021618306636810303,0.006790429353713989,0.8636407332930017,-0.18300606705458777,-0.4695324163123721,0.013139685757060145
1713524591664186400,0.919186279296875,0.2101348638534546,0.03219606727361679,0.03043874353170395,-0.8059887886047363,0.3277747929096222,-0.4928952753543854,0.0021863579750061035,-0.00512772798538208,0.015569835901260376,0.8638623199167071,-0.18223478031475152,-0.46940691483785324,0.013765525077210718
1713524591674175500,0.929175537109375,0.19463030993938446,0.04659338295459747,0.04434996843338013,-0.805686354637146,0.32731515169143677,-0.49369460344314575,-0.00809544324874878,-0.011397182941436768,0.012295067310333252,0.8640827207223061,-0.18156134131446208,-0.46924213217950245,0.01443509776233914
1713524591684165400,0.939165283203125,0.16472673416137695,0.040108319371938705,0.060277801007032394,-0.8053920269012451,0.32676249742507935,-0.4945400059223175,-0.011471867561340332,-0.026255935430526733,0.010973751544952393,0.8643173799342112,-0.1808830784390278,-0.46905363745982215,0.015010776939420978
1713524591694154500,0.949154541015625,0.15453466773033142,0.06241469085216522,0.05528850108385086,-0.805119514465332,0.32605624198913574,-0.4954492151737213,-0.007670342922210693,-0.025137662887573242,0.012523770332336426,0.8645721222515016,-0.18016962932397323,-0.468843575891329,0.015481662019596297
1713524591704144400,0.959144287109375,0.16535641252994537,0.06259764730930328,0.08869226276874542,-0.8047937154769897,0.32542550563812256,-0.49639230966567993,-0.007385849952697754,-0.01825082302093506,0.01746469736099243,0.864835307718921,-0.17947180691567613,-0.4686082736026272,0.0160031395107058
1713524591714134500,0.969134521484375,0.19619278609752655,0.0780586302280426,0.10753452777862549,-0.8043131828308105,0.3249593675136566,-0.497475266456604,-0.005470693111419678,-0.027184128761291504,0.015465408563613892,0.8651354286649965,-0.17877916412657563,-0.46829517727847747,0.01668069526684253
1713524591724123400,0.979123291015625,0.3257310688495636,0.06543311476707458,0.12956127524375916,-0.8037171363830566,0.32442882657051086,-0.4987832009792328,0.001928865909576416,-0.029491722583770752,0.011509031057357788,0.8654944231000488,-0.17788984445156075,-0.46793546872212666,0.0176343552818973
1713524591734113500,0.989113525390625,0.42177441716194153,0.18804611265659332,0.17566744983196259,-0.8025743961334229,0.32368531823158264,-0.5011009573936462,0.0018846988677978516,-0.004822403192520142,0.01742786169052124,0.8661331243248616,-0.17656654096411717,-0.46719779082109963,0.019076560952138805
1713524591744102400,0.999102294921875,0.5448097586631775,0.34593722224235535,0.28316646814346313,-0.8007891774177551,0.3231634199619293,-0.5042837858200073,-0.001212775707244873,0.02911624312400818,0.020824313163757324,0.8670089869656915,-0.1751254038946769,-0.46603561731493914,0.02091344706742996
1713524591754092500,1.009092529296875,0.42719826102256775,0.42801424860954285,0.12592019140720367,-0.7980095148086548,0.3224840760231018,-0.5091020464897156,-0.013239264488220215,0.03882879018783569,0.016044795513153076,0.8683489125938831,-0.1734865334553783,-0.46405967985586155,0.02283155049543318
1713524591764082400,1.01908251953125,0.38501858711242676,0.23120689392089844,-0.031733348965644836,-0.7962214946746826,0.3206388056278229,-0.5130516290664673,-0.03187292814254761,0.030725300312042236,0.01169365644454956,0.8694662790524705,-0.17186599473473022,-0.4625324325670418,0.023539354731642214
1713524591774071600,1.029071533203125,0.32626450061798096,0.06052544340491295,0.0006194638554006815,-0.7955611944198608,0.31857946515083313,-0.5153536796569824,-0.035020411014556885,0.026498019695281982,0.008548319339752197,0.870110972000064,-0.17024444912702041,-0.4618874263237314,0.02415777531262021
1713524591784061400,1.0390615234375,0.20923402905464172,-0.003294015070423484,-0.12139778584241867,-0.7956877946853638,0.31672096252441406,-0.5163029432296753,0.06941527128219604,-0.02295878529548645,0.0013036131858825684,0.8703700612159252,-0.16886787275532628,-0.46187895577575133,0.02464485287320045
1713524591794050600,1.049050537109375,0.3041461110115051,-0.12986154854297638,-0.004171163775026798,-0.7958033084869385,0.3145545721054077,-0.5174481272697449,0.12191414833068848,-0.055643439292907715,-0.008324027061462402,0.8706966097491866,-0.16752033820635,-0.461749810046447,0.02472745738912989
1713524591804040400,1.05904052734375,0.17939618229866028,-0.08755031228065491,0.17677545547485352,-0.795981764793396,0.31426236033439636,-0.5173511505126953,0.0750802755355835,-0.014549225568771362,0.030626296997070312,0.8706309243936541,-0.1666651420929224,-0.4621116367420553,0.02602694538467765
1713524591814029600,1.069029541015625,0.14111632108688354,0.061173923313617706,-0.06861960142850876,-0.7959048748016357,0.3136691153049469,-0.5178292989730835,0.029043912887573242,0.011053144931793213,0.152274489402771,0.8707538617194254,-0.16604976158473458,-0.46207448904846266,0.026502417898640978
1713524591824019500,1.07901953125,0.10477536916732788,0.022880597040057182,-0.07226280122995377,-0.7959325313568115,0.3123224079608917,-0.5186001658439636,-0.0063745975494384766,-0.08402043581008911,0.09419220685958862,0.8709778517948201,-0.16528559264643272,-0.46193137254151506,0.026413266170120332
1713524591834009300,1.08900927734375,0.08672962337732315,0.14689095318317413,-0.13602228462696075,-0.7958440184593201,0.3109980523586273,-0.5195310711860657,-0.06818491220474243,-0.04399973154067993,0.053024113178253174,0.8712545297245538,-0.16464835681851506,-0.46165503273259045,0.02609825874946794
1713524591843998500,1.09899853515625,0.08965404331684113,0.03170657902956009,-0.18907538056373596,-0.7957690358161926,0.3089940547943115,-0.5208399891853333,-0.05512207746505737,0.05784249305725098,0.020656883716583252,0.8716493753344638,-0.16378290849435378,-0.46125390339087136,0.0254431637189015
1713524591853988400,1.10898828125,-0.08571053296327591,-0.2569153606891632,-0.1158076748251915,-0.7968727946281433,0.307638943195343,-0.5199537873268127,-0.037798166275024414,0.011315494775772095,-0.024830758571624756,0.8714122246137825,-0.16334615126951885,-0.4618886735075037,0.024849358476922795
1713524591863977500,1.1189775390625,-0.1977851390838623,-0.41646242141723633,-0.09317506849765778,-0.7989479303359985,0.3075381815433502,-0.5168196558952332,0.03935009241104126,-0.06924164295196533,-0.02935349941253662,0.8705270593495272,-0.16367890860902978,-0.46346454461388314,0.024343115977729528
1713524591873967400,1.12896728515625,-0.4501904249191284,-0.345734179019928,-0.05921623855829239,-0.801331102848053,0.3086961507797241,-0.5124207139015198,0.10180729627609253,-0.10116139054298401,-0.003921449184417725,0.8692810093788664,-0.16488039290036796,-0.46540746387350496,0.023679645741502164
1713524591883957500,1.13895751953125,-0.48309487104415894,-0.20542635023593903,-0.08963992446660995,-0.8029505610466003,0.3103964328765869,-0.5088461637496948,0.05879467725753784,-0.1083853542804718,0.0248832106590271,0.8682852955820424,-0.16667818227621392,-0.46668542660148105,0.02244338011314392
1713524591893946400,1.1489462890625,-0.48834434151649475,-0.28204283118247986,-0.10640405863523483,-0.8044201731681824,0.3120221793651581,-0.5055197477340698,-0.028495967388153076,-0.07943248748779297,0.0432242751121521,0.8673627610208019,-0.16853434612011597,-0.4677994075458908,0.021014714767550534
1713524591903936500,1.1589365234375,-0.47600245475769043,-0.4548968970775604,-0.03494585305452347,-0.8065215349197388,0.3138972818851471,-0.500990629196167,-0.06977546215057373,-0.048806339502334595,0.023268461227416992,0.866081775190286,-0.17040377611670823,-0.46953938387655636,0.019945149355926287
1713524591913925400,1.16892529296875,-0.4348049759864807,-0.4376864731311798,-0.0693916454911232,-0.8090124726295471,0.31571677327156067,-0.4958042800426483,-0.004952430725097656,-0.03197956085205078,-0.010955452919006348,0.8646033643015004,-0.17218149659520288,-0.4716475367948248,0.01906016952536255
1713524591923915500,1.17891552734375,-0.3589901328086853,-0.2853313088417053,-0.08785214275121689,-0.8110595941543579,0.3170185089111328,-0.49161121249198914,0.01810610294342041,0.0061168670654296875,-0.029400169849395752,0.863410929262677,-0.1736696994738835,-0.47332148662840173,0.018086934438675577
1713524591933905700,1.18890576171875,-0.23777692019939423,-0.10113190114498138,-0.16253876686096191,-0.8123961687088013,0.31745848059654236,-0.4891141653060913,-0.045147836208343506,0.07920899987220764,-0.03266018629074097,0.862710162941336,-0.1746535999651116,-0.47427738097996036,0.01698122297584493
1713524591943894500,1.19889453125,-0.12267216295003891,0.1251276135444641,-0.12431521713733673,-0.8128911256790161,0.31699883937835693,-0.48858964443206787,-0.11647593975067139,0.13135015964508057,-0.03257429599761963,0.862579460682256,-0.17502744755394953,-0.4744160369912682,0.015860197432452972
1713524591953884700,1.208884765625,-0.1293601095676422,0.18725089728832245,-0.05057401582598686,-0.8123005032539368,0.3168460726737976,-0.48966971039772034,-0.13737595081329346,0.09314233064651489,-0.02165234088897705,0.8629064465168392,-0.17531527984523346,-0.47374011807787125,0.015076515144594054
1713524591963873500,1.21887353515625,-0.21874964237213135,0.07599707692861557,-0.04214990511536598,-0.811801016330719,0.3172769546508789,-0.4902186691761017,-0.07859504222869873,0.023238152265548706,0.0034480392932891846,0.8630780557359896,-0.17594595663386484,-0.4732163228322142,0.014334635441918719
1713524591973863700,1.22886376953125,-0.27036118507385254,0.013171777129173279,-0.03897668421268463,-0.8117420077323914,0.318119615316391,-0.4897700846195221,0.022862613201141357,-0.03482496738433838,0.016152560710906982,0.8629611216725075,-0.17690056950743138,-0.4730973917282061,0.013531041864403636
1713524591983852500,1.2388525390625,-0.34529587626457214,-0.0047148121520876884,-0.055485617369413376,-0.8118767738342285,0.31919875741004944,-0.48884379863739014,0.062090396881103516,-0.06822222471237183,0.003934741020202637,0.8627070498600798,-0.1780946388990765,-0.4731388787650397,0.012588020848560037
1713524591993842700,1.2488427734375,-0.373477041721344,-0.00009183050133287907,-0.09937836974859238,-0.8121707439422607,0.32026106119155884,-0.487659215927124,0.03746682405471802,-0.050195783376693726,-0.006130427122116089,0.8623805653935299,-0.17944408781793253,-0.47325491892201593,0.011371127643961552
1713524592003832600,1.25883251953125,-0.39772167801856995,-0.023564133793115616,-0.15640729665756226,-0.812633752822876,0.32098692655563354,-0.48640909790992737,-0.011249303817749023,-0.010775715112686157,-0.01633751392364502,0.8620362255417543,-0.1807392719954685,-0.4734223928274889,0.009905866345553445
1713524592013821700,1.26882177734375,-0.45760732889175415,0.0021769164595752954,-0.19880083203315735,-0.8132885098457336,0.3215442895889282,-0.48494434356689453,-0.04153937101364136,-0.004481971263885498,-0.02274605631828308,0.861629990182024,-0.18212984914803898,-0.473662901692197,0.008114652009699456
1713524592023811600,1.2788115234375,-0.48705071210861206,0.04795132949948311,-0.19553260505199432,-0.8138079047203064,0.32217878103256226,-0.4836502969264984,-0.045139849185943604,-0.012288033962249756,-0.0271681547164917,0.8612710916033754,-0.18367633765919575,-0.4737487245267998,0.006109297489996664
1713524592033800700,1.28880078125,-0.5098794102668762,0.0831652358174324,-0.1741410195827484,-0.8141058087348938,0.32297489047050476,-0.4826169013977051,-0.0314447283744812,-0.0032727718353271484,-0.030917644500732422,0.8609833296850157,-0.1853410976446064,-0.47364567832237153,0.004036469482037133
1713524592043790600,1.29879052734375,-0.5051760077476501,0.11166958510875702,-0.16503220796585083,-0.8141878247261047,0.32400521636009216,-0.4817872643470764,-0.011297523975372314,0.006759583950042725,-0.04128408432006836,0.8607495108913551,-0.18710628545870409,-0.4733894855524277,0.0020088404248976553
1713524592053780500,1.308780517578125,-0.5066347122192383,0.16005095839500427,-0.15378355979919434,-0.8140435814857483,0.3250845670700073,-0.481303334236145,0.010164856910705566,0.020267575979232788,-0.03209385275840759,0.8606111434305568,-0.18887374410681682,-0.47294295282619575,-0.00000965070131962861
1713524592063769600,1.31876953125,-0.5300127267837524,0.19026106595993042,-0.13047504425048828,-0.8136646151542664,0.32638463377952576,-0.48106449842453003,0.019780397415161133,0.03358545899391174,-0.02397090196609497,0.8605395408992642,-0.19074541237084164,-0.4723176284545016,-0.002014860422747981
1713524592073759500,1.328759521484375,-0.5711846351623535,0.19950570166110992,-0.10028650611639023,-0.8131189346313477,0.3280555307865143,-0.48085057735443115,0.024239540100097656,0.031227946281433105,-0.017181038856506348,0.8604704741139593,-0.19281683667114657,-0.4715892004295039,-0.003998048158702926
1713524592083748600,1.33874853515625,-0.6503135561943054,0.20853567123413086,-0.09262379258871078,-0.8124639391899109,0.33015167713165283,-0.4805227220058441,0.030115365982055664,0.01484951376914978,-0.01644071936607361,0.8603630242089776,-0.19518227713183417,-0.4707892438882605,-0.0060574313277956355
1713524592093738500,1.348738525390625,-0.7333700060844421,0.20726189017295837,-0.09284723550081253,-0.8117682337760925,0.33271023631095886,-0.4799336791038513,0.037903428077697754,-0.00687408447265625,-0.02487283945083618,0.860173345407233,-0.19792625311769085,-0.46995570308907353,-0.008289640267932247
1713524592103727000,1.35872705078125,-0.8266959190368652,0.2449892908334732,-0.10839849710464478,-0.8110034465789795,0.3356321454048157,-0.47919145226478577,0.04510384798049927,-0.01940903067588806,-0.03141340613365173,0.8599303636882284,-0.20101121027660487,-0.4690402689495492,-0.010744437767336933
1713524592113717000,1.368717041015625,-0.9628705978393555,0.2674455940723419,-0.10423018783330917,-0.8101314902305603,0.33898136019706726,-0.4783079922199249,0.03919649124145508,-0.03437018394470215,-0.03554698824882507,0.8596334286745578,-0.204555946727169,-0.4679774272809342,-0.013574249692158638
1713524592123707100,1.37870703125,-1.1226083040237427,0.2607029974460602,-0.0920901671051979,-0.809179961681366,0.3431309163570404,-0.4769580364227295,0.027228057384490967,-0.052985042333602905,-0.03709530830383301,0.859185933547414,-0.20875329604996204,-0.4668436969183413,-0.016691734274268538
1713524592133696000,1.388696044921875,-1.3241039514541626,0.27651605010032654,-0.13779160380363464,-0.8082484006881714,0.34800440073013306,-0.4750027656555176,0.026708483695983887,-0.06747153401374817,-0.029681742191314697,0.8585390926387582,-0.2136834541084927,-0.4656586764926473,-0.02030114206504544
1713524592143686100,1.39868603515625,-1.491149663925171,0.2756076455116272,-0.22005903720855713,-0.8075841665267944,0.3531894087791443,-0.4722975790500641,0.02587646245956421,-0.07882115244865417,-0.025047391653060913,0.8576375352013773,-0.21924852620977964,-0.46452265283134275,-0.024629712463814388
1713524592153675000,1.408675048828125,-1.703079104423523,0.3219301402568817,-0.31016644835472107,-0.8070377707481384,0.3585788309574127,-0.46916013956069946,0.0005497336387634277,-0.09586828947067261,-0.02627745270729065,0.8565604138846037,-0.2253964268140228,-0.46326706582373484,-0.029737136926057357
1713524592163665200,1.4186650390625,-1.963898777961731,0.3527761995792389,-0.40493103861808777,-0.8067619204521179,0.3641485869884491,-0.46532881259918213,-0.039322614669799805,-0.1154913604259491,-0.025348037481307983,0.8552040558265195,-0.23230335422082954,-0.4619207143931273,-0.03592062808508565
1713524592173655300,1.4286552734375,-2.5891451835632324,-0.15180785953998566,-0.1914978325366974,-0.8071342706680298,0.37115684151649475,-0.45910438895225525,-0.06525641679763794,-0.12733662128448486,-0.006807446479797363,0.8530606225601532,-0.24072245128423145,-0.46097777544197255,-0.042892372590947914
1713524592183644200,1.43864404296875,-2.604426145553589,-0.7500829696655273,0.844411313533783,-0.8081094622612,0.3890013098716736,-0.44230857491493225,-0.1026265025138855,-0.16979360580444336,-0.006345570087432861,0.8479936940816386,-0.25414513346318685,-0.46287792097272884,-0.04539600988705271
1713524592193634300,1.44863427734375,-2.461052656173706,0.5919387340545654,-0.3156353831291199,-0.8074553608894348,0.4013890326023102,-0.43232235312461853,-0.11335146427154541,-0.20714467763900757,0.02068600058555603,0.8447724176754078,-0.26503927454594706,-0.4621612319992375,-0.050206195314184195
1713524592203623200,1.458623046875,-2.7329866886138916,0.4621029794216156,-0.3671390414237976,-0.8064194321632385,0.4093623757362366,-0.42674344778060913,-0.061332523822784424,-0.26382410526275635,0.016892433166503906,0.8425665190938271,-0.27496463406426086,-0.45937209601250467,-0.05876457620283835
1713524592213613300,1.46861328125,-2.4752678871154785,0.23971517384052277,-0.28311625123023987,-0.8063671588897705,0.41783812642097473,-0.41854920983314514,-0.2159106731414795,-0.21723082661628723,0.013184189796447754,0.8395482093788552,-0.285141025097452,-0.45762429793305465,-0.06658427222165668
1713524592223603200,1.478603271484375,-2.4192917346954346,0.44617727398872375,-0.4778881371021271,-0.8065627813339233,0.4248753786087036,-0.41101980209350586,-0.11335903406143188,0.132375568151474,0.10540154576301575,0.8366708797904727,-0.2942918037342228,-0.4559412678410868,-0.07410535300086792
1713524592233592300,1.48859228515625,-2.624239921569824,0.39177021384239197,-0.5890400409698486,-0.8071688413619995,0.43058130145072937,-0.40382933616638184,-0.017751753330230713,0.039221495389938354,0.0030878186225891113,0.8336956657435673,-0.3033541915888401,-0.4539400447999582,-0.0828620911125406
1713524592243582200,1.498582275390625,-2.6723780632019043,0.5092952847480774,-0.6095540523529053,-0.8080173134803772,0.4364587366580963,-0.3957419693470001,-0.10604512691497803,-0.0915033221244812,-0.043024539947509766,0.8303099779933876,-0.3128799789742016,-0.45192381146046207,-0.09195798484643544
1713524592253571300,1.5085712890625,-2.8601696491241455,0.5455949306488037,-0.6835705637931824,-0.8089035749435425,0.4416181147098541,-0.38813450932502747,-0.20478349924087524,-0.11048716306686401,-0.023562878370285034,0.8268564258266728,-0.3224116011330053,-0.4494257534417752,-0.10186118457841863
1713524592263561200,1.518561279296875,-3.0349326133728027,0.5901440382003784,-0.6124700307846069,-0.8097478747367859,0.44745150208473206,-0.37959909439086914,-0.22136473655700684,-0.13991066813468933,-0.06044909358024597,0.8229280510979564,-0.3327593482838836,-0.44662251826208993,-0.11220044347408628
1713524592273551000,1.528551025390625,-3.214010000228882,0.6785389184951782,-0.558976948261261,-0.8099347949028015,0.45434194803237915,-0.370916485786438,-0.2167832851409912,-0.11912161111831665,-0.07346519827842712,0.8187797529754095,-0.3438530178235738,-0.4430653005238404,-0.12271083196922059
1713524592283540200,1.538540283203125,-3.401510238647461,0.7581988573074341,-0.38412201404571533,-0.8096786737442017,0.46237707138061523,-0.36142498254776,-0.25857388973236084,-0.08420324325561523,-0.08310931921005249,0.8142144486496962,-0.35580347264288625,-0.43896628473819,-0.13329451836658118
1713524592293530000,1.548530029296875,-3.5912094116210938,1.2746129035949707,-0.41296645998954773,-0.8079838156700134,0.47186052799224854,-0.3528592884540558,-0.3309931755065918,-0.11082234978675842,-0.09722921252250671,0.8096987813128026,-0.3685844803392538,-0.4332618632634014,-0.14428257861028523
1713524592303519200,1.558519287109375,-3.639275074005127,0.9549369215965271,0.05680130794644356,-0.8049772381782532,0.482469379901886,-0.3453042507171631,-0.3544465899467468,-0.07597523927688599,-0.06703400611877441,0.8053149812324114,-0.38174089655985166,-0.42617104764890346,-0.1553061201108743
1713524592313509000,1.568509033203125,-3.072442054748535,1.4194703102111816,0.7667477130889893,-0.7987841367721558,0.49747830629348755,-0.3383185565471649,-0.43140995502471924,-0.05186060070991516,-0.05932551622390747,0.8016506027001226,-0.39517861367064927,-0.41794088743774105,-0.16283646749482233
1713524592323498200,1.578498291015625,-3.145803213119507,1.4793291091918945,0.6403871178627014,-0.7910160422325134,0.5130006670951843,-0.33335214853286743,-0.3919824957847595,-0.011200249195098877,-0.09549611806869507,0.7987339533332899,-0.4078125706386363,-0.4086720367832226,-0.169410675047025
1713524592333488000,1.588488037109375,-3.5646681785583496,1.1721994876861572,1.0329372882843018,-0.7820202112197876,0.5302300453186035,-0.32756778597831726,-0.3606036901473999,0.11190557479858398,-0.13590270280838013,0.7955101387901111,-0.42135384721386543,-0.39834287398459484,-0.17591936646036177
1713524592343478300,1.598478271484375,-3.5555813312530518,1.2462153434753418,1.132164478302002,-0.772197425365448,0.5506730079650879,-0.3169708549976349,-0.586201012134552,0.2098402976989746,-0.115386962890625,0.7910893103835135,-0.4367526482052913,-0.3882804406861324,-0.1807297728012726
1713524592353467100,1.608467041015625,-4.082614421844482,0.9476388096809387,1.171452522277832,-0.7624311447143555,0.5711634159088135,-0.30409035086631775,-0.4951218366622925,0.06859177350997925,-0.13714799284934998,0.7857731621311945,-0.4529109951818748,-0.37792387238710706,-0.18602581225286438
1713524592363457300,1.618457275390625,-4.2420878410339355,0.9371312856674194,1.1404879093170166,-0.7531073093414307,0.5921306014060974,-0.28672438859939575,-0.44946837425231934,0.05377393960952759,-0.11514633893966675,0.7789013361709133,-0.47052550052098674,-0.36775475491449405,-0.19150711719974034
1713524592373446100,1.628446044921875,-4.182675838470459,0.714579164981842,1.4076182842254639,-0.7432015538215637,0.6132744550704956,-0.2674805223941803,-0.5378652811050415,0.2759771943092346,0.018167167901992798,0.7714816935806049,-0.48842026948418293,-0.3573589025773573,-0.19635738334817457
1713524592383436300,1.638436279296875,-3.845473289489746,0.5971710681915283,1.7250771522521973,-0.731693685054779,0.6352105736732483,-0.2472485452890396,-0.5151477456092834,0.2855505347251892,0.07636535167694092,0.7642102219312555,-0.5059556722451702,-0.34696482139023493,-0.19901501258071128
1713524592393426200,1.64842626953125,-3.272550106048584,0.6988465785980225,1.9663738012313843,-0.7183020114898682,0.6569841504096985,-0.2289406806230545,-0.3839164972305298,0.35261356830596924,0.037824347615242004,0.7579895520428646,-0.5220004757497899,-0.33622189188845897,-0.1998050618307736
1713524592403415300,1.658415283203125,-2.657226324081421,0.6230077147483826,2.0257275104522705,-0.7034121751785278,0.677858829498291,-0.21381905674934387,-0.2863338589668274,0.5256628394126892,-0.04899832606315613,0.7532201516509779,-0.5359111639067734,-0.3254069743014764,-0.1989191313878619
1713524592413405200,1.6684052734375,-2.2323057651519775,0.6281212568283081,2.231444835662842,-0.6872254610061646,0.697945773601532,-0.2014760971069336,-0.2682645916938782,0.596930205821991,-0.10557648539543152,0.7497715518083738,-0.5478963764390726,-0.31475627230158004,-0.1964193378391281
1713524592423394300,1.678394287109375,-1.632483959197998,0.6649719476699829,2.488429307937622,-0.669102668762207,0.7178706526756287,-0.1922580599784851,-0.2907513976097107,0.7152042388916016,-0.1524379551410675,0.7477715131814383,-0.5581424545855522,-0.30388809463997835,-0.19226717890192382
1713524592433384200,1.68838427734375,-1.055397391319275,0.7033473253250122,2.739561080932617,-0.6488378047943115,0.737536609172821,-0.18721404671669006,-0.3556177020072937,0.8100859522819519,-0.18392549455165863,0.7475665770507114,-0.5662938106321798,-0.29275296697688863,-0.1864166134212525
1713524592443374000,1.6983740234375,-0.6304292678833008,0.7343382239341736,2.957137107849121,-0.6262540817260742,0.7572247982025146,-0.1855163872241974,-0.395169198513031,0.7839280962944031,-0.20317070186138153,0.7488013943893644,-0.5728595287544065,-0.2812005768308727,-0.1790380535545405
1713524592453363200,1.70836328125,-0.4816269874572754,0.7936305999755859,3.1427981853485107,-0.6014425158500671,0.7769446969032288,-0.18607482314109802,-0.36105138063430786,0.8584312796592712,-0.2327636480331421,0.7509697765140856,-0.5784022114481419,-0.2690975122851429,-0.17053383395776667
1713524592463353000,1.71835302734375,-0.6220253109931946,0.8647772073745728,3.2364938259124756,-0.5748243927955627,0.7967001795768738,-0.18667057156562805,-0.30515003204345703,0.9762338995933533,-0.28433769941329956,0.753129749983275,-0.583935698373767,-0.2562885379635438,-0.16165079746321168
1713524592473342200,1.72834228515625,-0.7401360869407654,0.9358713626861572,3.3188486099243164,-0.5468391180038452,0.8163195252418518,-0.18598207831382751,-0.27304607629776,0.9731549024581909,-0.3416210412979126,0.7547252199322956,-0.5899861761350581,-0.2427452864017749,-0.15290791418999958
1713524592483332000,1.73833203125,-0.6787350177764893,0.8281435370445251,3.463169574737549,-0.517261266708374,0.8356364369392395,-0.18480364978313446,-0.2517511248588562,0.8516346216201782,-0.35218364000320435,0.7561480972456128,-0.5960322692279643,-0.22878747891488482,-0.14367246463133818
1713524592493321200,1.7483212890625,-0.4136498272418976,0.7397929430007935,3.6753435134887695,-0.48556283116340637,0.8546037673950195,-0.18406865000724792,-0.12053155899047852,0.6422224044799805,-0.3552684783935547,0.7578526135366026,-0.601529499107518,-0.21477414465140837,-0.13301801766912044
1713524592503311000,1.75831103515625,-0.18268319964408875,0.7481752038002014,3.869810104370117,-0.4515581429004669,0.8728109002113342,-0.18519270420074463,0.1238604187965393,0.560447096824646,-0.36072099208831787,0.7601929197438617,-0.6060270957455218,-0.2003367401564116,-0.12125612532897809
1713524592513301200,1.76830126953125,0.018820565193891525,0.6915233731269836,4.039571762084961,-0.415484219789505,0.8900701999664307,-0.18747752904891968,0.2666500210762024,0.43787163496017456,-0.3232341408729553,0.762865582393768,-0.6097706246926422,-0.18558292734880308,-0.10851174723196164
1713524592523290000,1.7782900390625,0.30039018392562866,0.6449340581893921,4.163865089416504,-0.3773936927318573,0.9060423970222473,-0.19147078692913055,0.3181438446044922,0.2822204828262329,-0.2871516942977905,0.7660001947522279,-0.6125116044481578,-0.17057004955027846,-0.09475764668516679
1713524592533280300,1.7882802734375,0.6595608592033386,0.6881076097488403,4.210855007171631,-0.3380173444747925,0.920034646987915,-0.1981932520866394,0.37437903881073,0.29654860496520996,-0.2414734959602356,0.7698303084460386,-0.6137858152073236,-0.1554681616125971,-0.08036120228098768
1713524592543269000,1.79826904296875,0.8277096748352051,0.7181385159492493,4.260925769805908,-0.2974371016025543,0.9319381713867188,-0.2074187695980072,0.3427862226963043,0.31504058837890625,-0.1897674798965454,0.7742096605798052,-0.6137387967517914,-0.14005466127297617,-0.06564173680390735
1713524592553259000,1.808259033203125,0.9923105835914612,0.7218429446220398,4.288220405578613,-0.25587669014930725,0.9418103098869324,-0.21799211204051971,0.27313438057899475,0.24710875749588013,-0.11022442579269409,0.7787357523096583,-0.612799400667057,-0.1244220189627455,-0.05066334899351701
1713524592563249200,1.818249267578125,1.12159264087677,0.6518412232398987,4.35608434677124,-0.21345411241054535,0.9495861530303955,-0.22961591184139252,0.22819411754608154,0.1466357707977295,-0.01714920997619629,0.7833017619013147,-0.6110428791578895,-0.10871357636765001,-0.03530279084395682
1713524592573238000,1.828238037109375,1.2617337703704834,0.5806474685668945,4.340425491333008,-0.1705886721611023,0.9551143050193787,-0.2421901375055313,0.17916414141654968,0.0055484771728515625,0.054354459047317505,0.787854983528176,-0.6084534358263809,-0.09321666465187821,-0.019480738442113166
1713524592583228200,1.838228271484375,1.2977921962738037,0.5078552961349487,4.2681498527526855,-0.12806732952594757,0.9583406448364258,-0.2553079128265381,0.14390596747398376,-0.1074952483177185,0.09312224388122559,0.7922379659768508,-0.6051871758077401,-0.07806742677707304,-0.003611587880959253
1713524592593217000,1.848217041015625,1.2058721780776978,0.4606901705265045,4.25844669342041,-0.08598514646291733,0.959590494632721,-0.2679414749145508,0.09346196055412292,-0.20635563135147095,0.13419824838638306,0.7961286725051611,-0.6016877868394255,-0.06325397100404043,0.012241777330413796
1713524592603207200,1.858207275390625,0.9850159287452698,0.2861151695251465,4.13035774230957,-0.04457949846982956,0.9593413472175598,-0.2787054479122162,0.018242843449115753,-0.3366454839706421,0.2061499059200287,0.7990988978935781,-0.5985372893125199,-0.048993775337815536,0.02817054755806763
1713524592613197000,1.868197021484375,0.8955749869346619,0.033546824008226395,3.8770580291748047,-0.005771094933152199,0.9577396512031555,-0.287578821182251,-0.025677256286144257,-0.4631107449531555,0.284832239151001,0.8011623698062448,-0.595731625936488,-0.03625485171356152,0.04391318876295572
1713524592623186200,1.878186279296875,1.153639554977417,-0.09267289936542511,3.6241979598999023,0.029943251982331276,0.9543339610099792,-0.2972373068332672,-0.04320313036441803,-0.518420934677124,0.363735169172287,0.8031906051700033,-0.5922466712259739,-0.025004577369198477,0.05918997761171822
1713524592633176000,1.888176025390625,1.6358978748321533,-0.15142516791820526,3.3771965503692627,0.06289409846067429,0.9484988451004028,-0.3104742765426636,-0.09196207672357559,-0.5502597093582153,0.4499090909957886,0.8060971818371959,-0.5869806085010678,-0.014718264135779927,0.07378676585997179
1713524592643165200,1.898165283203125,2.009561538696289,-0.14823150634765625,3.097517728805542,0.09301541745662689,0.9401313066482544,-0.32787376642227173,-0.1581093966960907,-0.5542671084403992,0.5160757303237915,0.810121263108619,-0.5796867363620947,-0.005138012800067378,0.08740948898717635
1713524592653155000,1.908155029296875,2.2662272453308105,-0.16718575358390808,2.7875802516937256,0.11997383087873459,0.9297537803649902,-0.34808629751205444,-0.1979004591703415,-0.4731956124305725,0.5799131393432617,0.8149136518402638,-0.5709143421352367,0.0036975038597303785,0.09979389968624386
1713524592663145000,1.91814501953125,2.373588800430298,-0.1266452521085739,2.4908041954040527,0.14375180006027222,0.9179483652114868,-0.3697378933429718,-0.22131222486495972,-0.4162089228630066,0.6206991672515869,0.8201105173197192,-0.5612416894093993,0.011781904373026435,0.11084963180267185
1713524592673134000,1.928134033203125,2.2234978675842285,-0.08185593783855438,2.230797290802002,0.16474908590316772,0.9055580496788025,-0.3909251093864441,-0.23350517451763153,-0.44625324010849,0.6146799921989441,0.8251723761503528,-0.5515150803495128,0.01919804133263987,0.12063650165334898
1713524592683124000,1.9381240234375,1.9122886657714844,-0.0958883985877037,2.038806676864624,0.18352437019348145,0.8935495615005493,-0.4097413420677185,-0.22821734845638275,-0.5450388789176941,0.5532960295677185,0.8295282955245111,-0.5426379627878487,0.025949261505159676,0.1294353587901916
1713524592693113000,1.948113037109375,1.5397264957427979,-0.14921127259731293,1.8815865516662598,0.20042002201080322,0.8825907111167908,-0.425282746553421,-0.20873604714870453,-0.6249003410339355,0.45819592475891113,0.8328844776495078,-0.5351092382836604,0.03188620163669208,0.13764009937357227
1713524592703103000,1.95810302734375,1.2068071365356445,-0.1801058053970337,1.7147350311279297,0.21545922756195068,0.872954249382019,-0.4376394748687744,-0.173634871840477,-0.659300684928894,0.3861715793609619,0.8352768713067922,-0.5289779989479495,0.036912506389018995,0.14536984447146506
1713524592713092000,1.968092041015625,0.9901248812675476,-0.20324601233005524,1.58320152759552,0.2289326936006546,0.8644778728485107,-0.44751280546188354,-0.1295827180147171,-0.619650661945343,0.36230775713920593,0.8369483342787859,-0.5239669171164234,0.041258585594031345,0.1525574235332159
1713524592723082000,1.97808203125,0.9265597462654114,-0.22828319668769836,1.466620922088623,0.241049662232399,0.8566227555274963,-0.4561713933944702,-0.11040391027927399,-0.5236150622367859,0.3676246702671051,0.8382799479867361,-0.5195033140208862,0.04506222190070507,0.15928690792331554
1713524592733072100,1.988072021484375,0.9720975160598755,-0.26811423897743225,1.3540773391723633,0.2519169747829437,0.848847508430481,-0.46475347876548767,-0.09914597868919373,-0.42970383167266846,0.40614449977874756,0.8396110381908322,-0.5150520256738906,0.048421744115634976,0.16562028449893246
1713524592743061000,1.99806103515625,1.1104533672332764,-0.2989349961280823,1.2420852184295654,0.26152303814888,0.8406580090522766,-0.4742358326911926,-0.07048299908638,-0.33588212728500366,0.4734576940536499,0.8412465399474208,-0.510135116430748,0.05142225763660552,0.1715285215546994
1713524592753051100,2.008051025390625,1.1751821041107178,-0.30641794204711914,1.1702384948730469,0.27008795738220215,0.8319709300994873,-0.48464080691337585,-0.046821385622024536,-0.22676169872283936,0.49910616874694824,0.8431949306199272,-0.5047212373787188,0.054185488009342496,0.17703843012927237
1713524592763040000,2.0180400390625,1.2239323854446411,-0.300678551197052,1.1138449907302856,0.2780059576034546,0.822977602481842,-0.4953993260860443,-0.04726257920265198,-0.15308630466461182,0.4713515341281891,0.8452695672063664,-0.49906906213206925,0.05683667699429651,0.18226069075458753
1713524592773030100,2.028030029296875,1.153895378112793,-0.28928342461586,1.1081867218017578,0.2856026291847229,0.8138934373855591,-0.5059728622436523,-0.0585518479347229,-0.13052862882614136,0.4366217255592346,0.8472823329885708,-0.493438160625462,0.05943364571272247,0.187347150377379
1713524592783020300,2.038020263671875,1.0346318483352661,-0.27696630358695984,1.0371898412704468,0.29279735684394836,0.8051554560661316,-0.5157463550567627,-0.06591442227363586,-0.14176446199417114,0.37113887071609497,0.8490647119708831,-0.48815628498300584,0.06188914686752101,0.19225561433357932
1713524592793009200,2.048009033203125,0.8656491637229919,-0.24017660319805145,0.9856711626052856,0.2995957136154175,0.7972005009651184,-0.5241313576698303,-0.06097877025604248,-0.12321978807449341,0.2977063059806824,0.8504751246837253,-0.4835413690503639,0.06420323004922514,0.19686960705001297
1713524592802999300,2.057999267578125,0.6766504645347595,-0.24479691684246063,0.9339591860771179,0.30595290660858154,0.7902228236198425,-0.5309810042381287,-0.04316604137420654,-0.11950749158859253,0.2436121702194214,0.8514571470459964,-0.47970629454656366,0.06626750880514126,0.20127421574225607
1713524592812988200,2.06798828125,0.5803687572479248,-0.27049776911735535,0.9015214443206787,0.31182804703712463,0.7841371297836304,-0.5365559458732605,-0.004989057779312134,-0.17708146572113037,0.22184348106384277,0.8520660909427472,-0.47654684944625514,0.0680083423622393,0.20557562160038945
1713524592822978300,2.077978271484375,0.6304894685745239,-0.31464365124702454,0.8659788966178894,0.3171403408050537,0.7781329154968262,-0.5421542525291443,0.05387711524963379,-0.22838926315307617,0.2468966841697693,0.8526731616165653,-0.47338735048201513,0.06947867324788178,0.2098230476425398
1713524592832968200,2.08796826171875,0.7579483389854431,-0.35457107424736023,0.7503046989440918,0.32159510254859924,0.771800696849823,-0.5485438108444214,0.10732948780059814,-0.21750998497009277,0.2915400266647339,0.8535465980348325,-0.46982182966937197,0.07067911210000004,0.21384624700454266
1713524592842957300,2.097957275390625,0.8635381460189819,-0.3416782021522522,0.632897138595581,0.3249954879283905,0.7650837302207947,-0.5558998584747314,0.1406722068786621,-0.12009483575820923,0.3358681797981262,0.8548234758609017,-0.46573605741516366,0.07169366847473913,0.21731690417306515
1713524592852947200,2.107947265625,0.9254978895187378,-0.3588167130947113,0.5199478268623352,0.3274279236793518,0.7581871151924133,-0.5638645887374878,0.1492261290550232,-0.015908122062683105,0.3747318983078003,0.8563977711816656,-0.46131202215287137,0.07251834613381636,0.22026179570871698
1713524592862936300,2.117936279296875,0.8363046646118164,-0.37999388575553894,0.4281175136566162,0.32887494564056396,0.7515820860862732,-0.5718091130256653,0.14704671502113342,0.003926336765289307,0.3887646794319153,0.8580573356352087,-0.45691016516054267,0.07299683178543409,0.22280528520495682
1713524592872926200,2.12792626953125,0.6445260047912598,-0.38622409105300903,0.35408246517181396,0.32961505651474,0.7460222840309143,-0.5786231756210327,0.1671043336391449,-0.05775934457778931,0.3679450750350952,0.8594493420591844,-0.45315197178448324,0.07308701387663191,0.22507445955081548
1713524592882916000,2.137916015625,0.3952879309654236,-0.38898739218711853,0.28316807746887207,0.329754501581192,0.7419238686561584,-0.583790123462677,0.19050917029380798,-0.15227848291397095,0.3329204320907593,0.8604110085377622,-0.4503478972652934,0.07274408140388186,0.22712984630553176
1713524592892905200,2.1479052734375,0.18613861501216888,-0.3885650038719177,0.21406084299087524,0.3293324112892151,0.7394520044326782,-0.5871548652648926,0.2064036726951599,-0.2370869517326355,0.2989926338195801,0.8608992838046386,-0.4486032467866033,0.07195615984875806,0.22897559700007183
1713524592902895000,2.15789501953125,0.0654662624001503,-0.41214969754219055,0.14444421231746674,0.32834944128990173,0.7381513714790344,-0.589337944984436,0.23518815636634827,-0.2895125150680542,0.27015459537506104,0.8611027302772943,-0.4475686104062299,0.07080513180797034,0.23058862838127686
1713524592912884200,2.16788427734375,0.03868396580219269,-0.474580317735672,0.08876696228981018,0.32662633061408997,0.7374950051307678,-0.5911145210266113,0.28924891352653503,-0.2983775734901428,0.26097536087036133,0.861221535270218,-0.44682233211071076,0.0692281605659402,0.2320662457705929
1713524592922874000,2.1778740234375,0.05614231899380684,-0.5446224808692932,0.059863410890102386,0.32420840859413147,0.7369344830513,-0.5931412577629089,0.3669689893722534,-0.25024014711380005,0.2711350917816162,0.8614210808413053,-0.4459836709907297,0.0672898699821129,0.23350470820286168
1713524592932864300,2.1878642578125,0.04061438515782356,-0.6380712389945984,0.08447934687137604,0.32126137614250183,0.7364007234573364,-0.5954034328460693,0.44241052865982056,-0.16897213459014893,0.29619383811950684,0.8616414333395378,-0.44505636385536945,0.06498561846742064,0.2351081651531316
1713524592942853000,2.19785302734375,-0.005954981315881014,-0.684576690196991,0.14303213357925415,0.3182673752307892,0.7359204888343811,-0.5976009964942932,0.5087590217590332,-0.1220899224281311,0.3066311478614807,0.8617317842437761,-0.44418405449707316,0.062450239791042014,0.23710517351267937
1713524592952843300,2.20784326171875,-0.015962660312652588,-0.6878944039344788,0.2340262234210968,0.31569603085517883,0.7353983521461487,-0.5996043682098389,0.582848310470581,-0.10981851816177368,0.30936694145202637,0.8616626617059003,-0.44339770150859126,0.059969213422117106,0.23945723132357638
1713524592962832100,2.21783203125,-0.11440853774547577,-0.6786348819732666,0.39130985736846924,0.31407544016838074,0.734740674495697,-0.6012592315673828,0.6802787780761719,-0.13024860620498657,0.2589436173439026,0.8613348803168143,-0.4427596105824789,0.05774360608858751,0.24234627932042985
1713524592972822300,2.227822265625,-0.2725696265697479,-0.6345502734184265,0.6676585674285889,0.314166396856308,0.7342666983604431,-0.6017906069755554,0.8247495889663696,-0.2002396583557129,0.14836043119430542,0.8604142322137089,-0.44269269185373056,0.05592751987969991,0.24613543956896472
1713524592982812200,2.237812255859375,-0.39245209097862244,-0.4816472828388214,0.9992761015892029,0.31705203652381897,0.7335768938064575,-0.6011180877685547,1.0245007276535034,-0.2566177248954773,0.023893356323242188,0.8587727754583208,-0.4431893279386409,0.054992386747863824,0.25113433270982805
1713524592992801300,2.24780126953125,-0.5198090076446533,-0.3367100656032562,1.3567495346069336,0.323458194732666,0.7325535416603088,-0.5989492535591125,1.2737860679626465,-0.28365522623062134,-0.11314797401428223,0.8563392639859974,-0.44436148845265633,0.055391829231501995,0.25721153153347
1713524593002791200,2.257791259765625,-0.6636167764663696,-0.4221021831035614,1.9568310976028442,0.33315399289131165,0.7307655811309814,-0.5958104133605957,1.5978457927703857,-0.2869790196418762,-0.2105097770690918,0.8530338529267228,-0.44595653026850934,0.056723723498446704,0.265025238284008
1713524593012780300,2.2677802734375,-0.6393832564353943,-0.7083320617675781,2.8825836181640625,0.3477264940738678,0.7267103791236877,-0.5924343466758728,2.0385804176330566,-0.27350908517837524,-0.2238498330116272,0.8484228167551879,-0.4475340172101929,0.05912804996804867,0.2763983287620004
1713524593022770200,2.277770263671875,-0.29890692234039307,-2.2569210529327393,5.230079174041748,0.3682592809200287,0.7154306769371033,-0.5937541127204895,2.5982630252838135,-0.3055034279823303,-0.15400278568267822,0.8420900357315007,-0.44646301238889946,0.061593239643279736,0.29624533107814593
1713524593032760000,2.287760009765625,0.7092466354370117,-3.7656617164611816,6.3956685066223145,0.3926003575325012,0.6916669607162476,-0.6061862707138062,3.1975791454315186,-0.32429635524749756,-0.023620247840881348,0.8340184367002644,-0.4392948964442717,0.0626646002128403,0.32788168221452846
1713524593042749200,2.297749267578125,1.4253852367401123,-3.845278739929199,7.517813682556152,0.41533201932907104,0.6569355130195618,-0.629233717918396,3.6217925548553467,-0.23678475618362427,0.010428786277770996,0.825650541680104,-0.4258570183530501,0.06347405444136217,0.36457921567833723
1713524593052739000,2.307739013671875,1.5132884979248047,-3.4851608276367188,8.342985153198242,0.4425804615020752,0.613054633140564,-0.6544360518455505,3.516648054122925,-0.17633289098739624,-0.12817198038101196,0.8145640494669716,-0.41007422035373925,0.06797879158339011,0.4046027478607548
1713524593062728200,2.317728271484375,1.170379877090454,-3.4306752681732178,8.424139976501465,0.4693033695220947,0.565618634223938,-0.6781075596809387,3.1093862056732178,-0.36443161964416504,-0.3621756434440613,0.8007206752339155,-0.3942993548257839,0.07398811661830121,0.4448596358924217
1713524593072718000,2.327718017578125,0.4605921804904938,-3.5140175819396973,8.470894813537598,0.49084943532943726,0.5194554924964905,-0.699451744556427,3.007197380065918,-0.6731115579605103,-0.3782612681388855,0.7841082199807617,-0.3796559197704602,0.07832951869528575,0.484664909350546
1713524593082708200,2.337708251953125,-0.09462738037109375,-4.058052062988281,8.230782508850098,0.5081459879875183,0.4762195944786072,-0.7176367044448853,3.1342337131500244,-1.1116414070129395,-0.13098078966140747,0.7644427529449833,-0.3669273732948049,0.08090696030159177,0.5238754985485683
1713524593092697000,2.347697021484375,-2.6456563472747803,5.3960490226745605,7.181270599365234,0.5488070249557495,0.4410424530506134,-0.7101355195045471,3.3951168060302734,-1.505068302154541,0.2560797333717346,0.740399274430348,-0.3687234787386698,0.09473779636424397,0.5539644936028466
1713524593102687700,2.357687744140625,-1.3406414985656738,7.107397079467773,-4.881570816040039,0.603411853313446,0.45042312145233154,-0.6580373644828796,2.9337432384490967,-1.9160603284835815,0.5251027941703796,0.7269120592971621,-0.39701171779555877,0.11559852295090474,0.5482859941197985
1713524593112676900,2.3676767578125,0.26711341738700867,-1.5538774728775024,-5.5982208251953125,0.5893094539642334,0.4931151568889618,-0.6399623155593872,1.501343011856079,-2.238781690597534,0.5344630479812622,0.7420546738953635,-0.40961664104369355,0.11060312898137258,0.5189759116349947
1713524593122666800,2.377666748046875,3.452639579772949,-6.3642072677612305,-1.0846940279006958,0.5456205010414124,0.49814099073410034,-0.6739093065261841,2.457690715789795,-2.4827449321746826,1.3678181171417236,0.7553324850931517,-0.3930278138706024,0.09259844252386898,0.5161661156535808
1713524593132657000,2.387656982421875,6.2958984375,-7.082683086395264,-2.165022611618042,0.4915023744106293,0.4704645574092865,-0.7328632473945618,5.80984354019165,-1.1964777708053589,3.0703420639038086,0.7707355359571756,-0.3572859161709582,0.07690993185753824,0.5219180368335584
1713524593142645800,2.397645751953125,8.553935050964355,-7.713308811187744,-5.81559419631958,0.41611161828041077,0.4301697015762329,-0.8011274933815002,6.311244487762451,0.9908508062362671,2.5087690353393555,0.7962746186722038,-0.30944469852120776,0.06066502631875362,0.5162466311679494
1713524593152636000,2.407635986328125,8.666631698608398,-7.406548500061035,-9.516989707946777,0.32219597697257996,0.3861415386199951,-0.8643404841423035,2.318291664123535,0.8599979877471924,1.3503177165985107,0.8296973538694727,-0.25717377954916226,0.041126718799148164,0.4937333128718794
1713524593162624800,2.417624755859375,10.850723266601562,-5.2965874671936035,-13.079981803894043,0.22383826971054077,0.3321654498577118,-0.9162764549255371,0.31664329767227173,-0.3473784625530243,0.7659773826599121,0.8686152231439171,-0.20327742968521062,0.02323911636706443,0.45127136904380816
1713524593172615000,2.427614990234375,8.191000938415527,-3.928884983062744,-13.614712715148926,0.14722540974617004,0.2633639872074127,-0.9533960819244385,-0.5994195938110352,-0.7294742465019226,0.011333703994750977,0.9062807490974265,-0.15189464291279692,0.015164826992834867,0.3941489295786585
1713524593182603800,2.437603759765625,6.4633588790893555,-2.4319403171539307,-7.800827503204346,0.09046688675880432,0.21584093570709229,-0.9722285866737366,-2.2073187828063965,-0.5114036798477173,-1.6332401037216187,0.9305013929535085,-0.11774277992839795,0.004726873804810886,0.34681601104724524
1713524593192594000,2.447593994140625,9.60720443725586,-4.274843215942383,-12.573296546936035,0.03895126283168793,0.1418973207473755,-0.9891147017478943,-5.471248149871826,0.11457237601280212,-1.8952999114990234,0.9497427382072382,-0.07370890127288082,-0.003103621137024192,0.30421391633058326
1713524593202583800,2.457583740234375,7.7917561531066895,1.932931661605835,-13.149089813232422,0.013652335852384567,0.05596128851175308,-0.9983395934104919,-12.95429515838623,0.5228198170661926,-0.8956270813941956,0.9702129063605787,-0.02881303118475089,-0.0001075511422696853,0.2405340593777377
1713524593212573000,2.467572998046875,5.316843509674072,8.249082565307617,-13.212736129760742,0.06717973947525024,-0.0026106638833880424,-0.997737467288971,-15.844660758972168,5.05563497543335,-2.2794079780578613,0.9843172949658641,-0.00453706480435541,0.03332683711952277,0.17317104914241388
1713524593222562800,2.477562744140625,-6.689423561096191,3.0532209873199463,-2.735154867172241,0.11725865304470062,0.007032415829598904,-0.993076503276825,-10.13325023651123,6.986513137817383,-1.5883748531341553,0.98942957127129,-0.0112889715955418,0.05774343591278825,0.13254206826366735
1713524593232552700,2.487552734375,-14.72856616973877,3.7113587856292725,4.179593563079834,0.15766319632530212,0.11634822934865952,-0.9806147813796997,-6.476129531860352,1.2805328369140625,1.5404598712921143,0.9851968377407723,-0.06904518781696484,0.0701808944425672,0.14033715618012121
1713524593242541800,2.497541748046875,-14.737077713012695,3.7443435192108154,6.341864585876465,0.20528632402420044,0.25290530920028687,-0.9454609751701355,-2.7451422214508057,-1.0942749977111816,3.4508168697357178,0.9713592769833164,-0.14430321932848902,0.0802875912123446,0.1708559490568166
1713524593252531700,2.50753173828125,-8.209403038024902,1.6398897171020508,4.120312213897705,0.26144176721572876,0.35164251923561096,-0.8988858461380005,-0.24307018518447876,-2.1141090393066406,4.899755477905273,0.9536575332329525,-0.20413126216706587,0.09427363491462853,0.1999504027990992
1713524593262520800,2.517520751953125,7.956590175628662,-3.108665943145752,2.308210611343384,0.2613554894924164,0.34823983907699585,-0.900234580039978,0.198391854763031,-1.0614204406738281,2.71519136428833,0.9509648167354269,-0.20370439021444628,0.09158177151926848,0.2139703604656153
1713524593272510700,2.5275107421875,16.501197814941406,-4.8326334953308105,3.034615993499756,0.23256824910640717,0.22121229767799377,-0.9470887780189514,-0.5978484153747559,1.240091323852539,-0.6378263831138611,0.9607004042846632,-0.13601497814798003,0.08919384284381168,0.2249425796424364
1713524593282500900,2.5375009765625,15.364439964294434,-6.104025363922119,-1.158921718597412,0.18175217509269714,0.05607962980866432,-0.9817439913749695,-0.23604291677474976,1.8780176639556885,-1.5698001384735107,0.969480967850549,-0.04814192975901397,0.08252495688316033,0.22578465954231586
1713524593292489700,2.54748974609375,-1.305179476737976,1.5678969621658325,-4.246760845184326,0.15953856706619263,-0.00010899271001107991,-0.9871916770935059,0.14537779986858368,0.6378501057624817,-0.7993378043174744,0.974667793147574,-0.016713782813546317,0.07826112790859545,0.20885058267263887
1713524593302479600,2.557479736328125,-11.235908508300781,0.46185848116874695,-2.302521228790283,0.16538047790527344,0.06658552587032318,-0.9839795231819153,-1.3224849700927734,-1.8565788269042969,1.1423351764678955,0.9766461570390664,-0.04905974227503371,0.07485579133104941,0.19532552461266942
1713524593312468700,2.56746875,-14.945524215698242,3.103501081466675,-1.467264175415039,0.1782303899526596,0.19662678241729736,-0.9641430377960205,-2.0660171508789062,-6.79625129699707,1.629746675491333,0.9725243592683515,-0.1146386936635289,0.06918408471981613,0.19044168761090474
1713524593322458600,2.577458740234375,-13.536613464355469,4.398042678833008,-0.9684396982192993,0.2218511402606964,0.3434363007545471,-0.912597119808197,-1.2120397090911865,-6.909384727478027,3.6633143424987793,0.9600675972732924,-0.1939614603542671,0.07797677757525669,0.18592658794379235
1713524593332448800,2.58744873046875,-2.490835666656494,2.371894359588623,-1.7517660856246948,0.2485325038433075,0.4181751012802124,-0.8737053871154785,-0.7572757601737976,-0.9354481101036072,1.8240227699279785,0.9513388331485729,-0.2359767275966231,0.08638447428104311,0.17834532636675338
1713524593342437600,2.597437744140625,5.907479763031006,-0.9788394570350647,0.8783499598503113,0.2519212067127228,0.40000277757644653,-0.8812113404273987,-0.6147141456604004,3.1307284832000732,-0.45643508434295654,0.9541409970960808,-0.22615919210593177,0.0908093439110157,0.1738407278031276
1713524593352427800,2.607427734375,7.3091630935668945,-3.1011831760406494,2.6809961795806885,0.23891864717006683,0.33454185724258423,-0.9115918278694153,0.2959476709365845,3.6487345695495605,-1.165358304977417,0.9605415238680871,-0.19085948889629095,0.08818591431131595,0.18208732558955396
1713524593362416600,2.617416748046875,5.94256591796875,-3.1916158199310303,2.762533664703369,0.21792182326316833,0.2657129764556885,-0.9390988945960999,1.3521770238876343,2.769641637802124,-0.8484835028648376,0.9650669523028704,-0.15420594892807987,0.0816767445791851,0.19543593548734448
1713524593372406800,2.62740673828125,2.8889384269714355,-1.6510833501815796,1.1487126350402832,0.19783687591552734,0.21879319846630096,-0.9555051326751709,0.9044733047485352,1.1260706186294556,0.14216595888137817,0.9672781075618483,-0.12898916536825988,0.07489469749295946,0.20524545195932611
1713524593382396700,2.637396728515625,-0.011826452799141407,0.9122022390365601,0.38619571924209595,0.19739684462547302,0.20521581172943115,-0.9586036205291748,-0.17974242568016052,-0.27035561203956604,0.3767555356025696,0.9674950158860237,-0.12233186701715773,0.07571717347138163,0.20797878462376496
1713524593392385800,2.6473857421875,-1.5631768703460693,1.6805508136749268,0.19120346009731293,0.21188542246818542,0.21259070932865143,-0.953891932964325,-1.0159778594970703,-0.9903464317321777,0.42888277769088745,0.9660675209958723,-0.1277707129370393,0.0820286031717815,0.20894881422375478
1713524593402375700,2.657375732421875,-1.776918649673462,1.257630467414856,-0.18999236822128296,0.22618117928504944,0.23042601346969604,-0.9464385509490967,-1.203537106513977,-1.3352692127227783,0.4473845958709717,0.9642234280330689,-0.13838192076179529,0.08735656546501125,0.20854850314485396
1713524593412364800,2.66736474609375,-1.0519802570343018,0.6247819066047668,-0.18451698124408722,0.23472222685813904,0.24437426030635834,-0.9408435821533203,-0.6193047165870667,-0.987370491027832,0.2605915069580078,0.9629967518831528,-0.14634773690274855,0.09033568205345488,0.20750675851261544
1713524593422354700,2.677354736328125,-0.3643704950809479,-0.06060151383280754,-0.0001540513476356864,0.23706761002540588,0.2512597441673279,-0.9384388327598572,-0.18257847428321838,-0.5016869902610779,0.11936235427856445,0.962457818988291,-0.15008258071402214,0.09086137245917844,0.2071097485682542
1713524593432344600,2.687344482421875,0.3040430247783661,-0.3777131736278534,0.2619740962982178,0.23515568673610687,0.2512798011302948,-0.93891441822052,0.05958309769630432,-0.1929301917552948,0.13367760181427002,0.9624054872845412,-0.14994362055977556,0.08977586343273704,0.2079252231240134
1713524593442333700,2.697333740234375,0.8358485698699951,-0.4576897621154785,0.4424847364425659,0.23205217719078064,0.24501323699951172,-0.9413396120071411,0.13887372612953186,0.03327654302120209,0.2000829577445984,0.9626540183979637,-0.14655882208790963,0.08860413302002361,0.20968346648124414
1713524593452323600,2.707323486328125,1.1701582670211792,-0.4036896228790283,0.597564160823822,0.2292553186416626,0.23426637053489685,-0.9447546005249023,-0.013099312782287598,0.08906736969947815,0.11040401458740234,0.9630245858344056,-0.14100264951455307,0.08798268240261066,0.21203980698504873
1713524593462312700,2.717312744140625,1.2526350021362305,-0.404532790184021,0.7585127949714661,0.227046400308609,0.22117114067077637,-0.9484372735023499,-0.227717787027359,0.14070628583431244,0.042065203189849854,0.9633170637848926,-0.13440527753414258,0.08784408761766295,0.21503243687451792
1713524593472302600,2.727302490234375,1.1897509098052979,-0.40733763575553894,0.8292955160140991,0.22488544881343842,0.20773617923259735,-0.9519833326339722,-0.3040785491466522,0.16473086178302765,0.06357085704803467,0.963433389226019,-0.12771669261503155,0.087731371109363,0.21860412091844797
1713524593482293000,2.73729296875,1.0352026224136353,-0.3878116011619568,0.7657093405723572,0.22275114059448242,0.1953461617231369,-0.9551030397415161,-0.24438808858394623,0.0905272364616394,0.09276783466339111,0.9634139078194255,-0.12157962863339354,0.08756069588206929,0.2222278260035434
1713524593492281600,2.747281494140625,0.8334524035453796,-0.35065943002700806,0.6408786773681641,0.22055713832378387,0.18489119410514832,-0.9576898217201233,-0.19786730408668518,-0.06439255177974701,0.07130676507949829,0.9633423442417556,-0.11637831754102591,0.08724204743095128,0.22542526831131454
1713524593502272000,2.75727197265625,0.6089159846305847,-0.26920825242996216,0.473623126745224,0.21857883036136627,0.17681089043617249,-0.9596672654151917,-0.20150424540042877,-0.19809690117835999,-0.00458139181137085,0.963259940424128,-0.11233600228742412,0.08687349697893856,0.2279559251171448
1713524593512260600,2.767260498046875,0.35296642780303955,-0.22237522900104523,0.37974321842193604,0.21698148548603058,0.1712801456451416,-0.9610317945480347,-0.22056728601455688,-0.2708284854888916,-0.04180634021759033,0.9631536496125396,-0.10956055082892047,0.08649032243961438,0.2298936254835632
1713524593522251000,2.7772509765625,0.16489718854427338,-0.20269393920898438,0.3884000778198242,0.21561886370182037,0.16809126734733582,-0.9619011282920837,-0.23704218864440918,-0.3051457405090332,-0.049848079681396484,0.9629417043703107,-0.10796931211489216,0.0859770371500638,0.23171911966318737
1713524593532241000,2.787240966796875,0.15930183231830597,-0.23608945310115814,0.47267675399780273,0.21426381170749664,0.16574697196483612,-0.9626104831695557,-0.23097218573093414,-0.2854827046394348,-0.017812490463256836,0.9626208944252593,-0.10682105035925783,0.08534646723348815,0.2338079965778045
1713524593542230000,2.79722998046875,0.2866893410682678,-0.31821733713150024,0.6602133512496948,0.21253395080566406,0.16250361502170563,-0.9635465145111084,-0.25422096252441406,-0.19714106619358063,0.0030210018157958984,0.9621951840472722,-0.10523514873735934,0.0845712858421472,0.23654539536835034
1713524593552220000,2.807219970703125,0.48662126064300537,-0.4004687964916229,0.997710108757019,0.21031558513641357,0.15709322690963745,-0.9649295806884766,-0.3181799650192261,-0.07883091270923615,0.013635635375976562,0.9615808391952085,-0.1026158701121906,0.083697079253627,0.24047240869803
1713524593562208800,2.817208740234375,0.6913483142852783,-0.5974785089492798,1.3294787406921387,0.2073047012090683,0.14902324974536896,-0.9668592810630798,-0.3938891589641571,0.03453996777534485,0.06829971075057983,0.9606533982485638,-0.09872663093162916,0.08260399850278247,0.24611940355390943
1713524593572199000,2.827198974609375,0.9366915822029114,-0.7267603278160095,1.5708463191986084,0.20294715464115143,0.138180211186409,-0.969390869140625,-0.46288061141967773,0.12152436375617981,0.17681884765625,0.9595070917804605,-0.09340127375177602,0.08112187830226536,0.2530646283017375
1713524593582188800,2.837188720703125,1.0716995000839233,-0.8117277026176453,1.8209278583526611,0.1976710557937622,0.1250075399875641,-0.9722650051116943,-0.5252314805984497,0.16747291386127472,0.26552367210388184,0.9580965271462306,-0.0868976264881699,0.07947509822155774,0.26112007326804515
1713524593592178000,2.847177978515625,1.0903549194335938,-0.7665543556213379,2.0777699947357178,0.1922018676996231,0.11066056787967682,-0.9750962257385254,-0.6178457736968994,0.147396057844162,0.26708847284317017,0.9562785289749908,-0.07988505022046319,0.07791186568477486,0.27033205303911223
1713524593602167800,2.857167724609375,1.0358359813690186,-0.723127007484436,2.2999229431152344,0.18723024427890778,0.0961683839559555,-0.9775972962379456,-0.6759387254714966,0.0983659029006958,0.20368677377700806,0.9539488766576807,-0.07296286041386858,0.07666661999728082,0.2806781770781896
1713524593612157000,2.867156982421875,1.049087643623352,-0.6260784864425659,2.4908530712127686,0.18272189795970917,0.08163425326347351,-0.9797696471214294,-0.7069833874702454,0.03927639126777649,0.09964269399642944,0.9511472869940292,-0.06616027402578217,0.07574956503109474,0.2918965780136403
1713524593622146800,2.877146728515625,1.1880316734313965,-0.5774883031845093,2.716283082962036,0.17881588637828827,0.0661059245467186,-0.9816592335700989,-0.7298870086669922,0.016627222299575806,0.009689629077911377,0.9478384391444108,-0.0590527621140319,0.07538663980205203,0.30402624725336735
1713524593632136700,2.88713671875,1.4431451559066772,-0.6439014077186584,2.8333568572998047,0.17454247176647186,0.04832352325320244,-0.9834631681442261,-0.7697877883911133,0.027115922421216965,-0.06386959552764893,0.9441079620458763,-0.050883628061555136,0.07536101333994825,0.31684653666383256
1713524593642125800,2.897125732421875,1.6893237829208374,-0.8185429573059082,2.8924007415771484,0.16848602890968323,0.028020944446325302,-0.985305666923523,-0.8033889532089233,0.0918826088309288,-0.08802807331085205,0.9401183179077841,-0.041265996035463666,0.07512840791809866,0.3298944786318098
1713524593652115700,2.90711572265625,1.8006244897842407,-1.1250962018966675,2.941741704940796,0.15953725576400757,0.006122294347733259,-0.9871729016304016,-0.8476323485374451,0.15899305045604706,-0.03792774677276611,0.9359195158712613,-0.03041981667180483,0.07408219654920804,0.3429886536820131
1713524593662105900,2.91710595703125,2.1195006370544434,-1.1682453155517578,3.183133125305176,0.14796355366706848,-0.017845656722784042,-0.9888318181037903,-0.8915853500366211,0.18148089945316315,0.07067996263504028,0.9312281737446788,-0.01818112292713809,0.07248137698436306,0.3566930300835682
1713524593672094700,2.9270947265625,2.4282588958740234,-1.0675541162490845,3.1858043670654297,0.1357039362192154,-0.04486778751015663,-0.9897329807281494,-0.9224013090133667,0.21372154355049133,0.18261933326721191,0.9259459989968081,-0.004409368673833972,0.07151279436025555,0.3707970226502976
1713524593682084900,2.9370849609375,2.7250804901123047,-0.6158047914505005,3.070955276489258,0.12540462613105774,-0.07430014759302139,-0.9893195629119873,-0.9684374332427979,0.2251027524471283,0.2471625804901123,0.9203262281050443,0.010150109308040656,0.07236851619630467,0.3842646207441061
1713524593692073700,2.94707373046875,3.159708023071289,-0.02395748160779476,3.0657804012298584,0.11938022077083588,-0.10707681626081467,-0.9870576858520508,-1.0621750354766846,0.20642678439617157,0.29321008920669556,0.914210415842515,0.025402326951110155,0.07632737535982348,0.3971751297400735
1713524593702063900,2.95706396484375,3.3938422203063965,0.4386780560016632,3.087261438369751,0.11776398867368698,-0.1431519091129303,-0.9826694130897522,-1.10471773147583,0.1880432516336441,0.2929874062538147,0.907356610264179,0.04116441208800031,0.08349123079777176,0.4099251313945311
1713524593712053800,2.9670537109375,3.400467872619629,0.6166380047798157,3.011845350265503,0.11816854774951935,-0.18004682660102844,-0.976534366607666,-1.046513319015503,0.16555097699165344,0.21019220352172852,0.8999341144586493,0.05672602572472777,0.09227667190742668,0.4223573102831042
1713524593722043000,2.97704296875,3.20169734954834,0.44670137763023376,2.9298689365386963,0.11772193014621735,-0.21585623919963837,-0.9693026542663574,-0.9138339757919312,0.12790456414222717,0.13168668746948242,0.8922488785379409,0.07184310041431206,0.10093188046819965,0.4342155581462912
1713524593732032800,2.98703271484375,2.5531773567199707,-0.005507102236151695,2.902533769607544,0.11313599348068237,-0.24712572991847992,-0.9623560309410095,-0.7385937571525574,0.06618699431419373,0.07179206609725952,0.8846027542535978,0.08570433063833394,0.10712960794040552,0.44570849159137105
1713524593742022000,2.99702197265625,1.9357119798660278,-0.6551308631896973,3.0204381942749023,0.10229530930519104,-0.27168405055999756,-0.95693439245224,-0.5343936681747437,-0.014845520257949829,0.01191180944442749,0.8770742515629183,0.09785609407769542,0.10934799292307994,0.45739259561559653
1713524593752011800,3.00701171875,1.4839732646942139,-0.9296790957450867,2.938168525695801,0.08605444431304932,-0.2908055782318115,-0.9529044032096863,-0.2981363534927368,-0.08050179481506348,0.03427952527999878,0.8697260118091947,0.10884066632607055,0.10817357301731086,0.46907237416333925
1713524593762001700,3.017001708984375,1.132951021194458,-0.9410017728805542,2.8671586513519287,0.06853858381509781,-0.30536746978759766,-0.9497647881507874,-0.06919470429420471,-0.17264464497566223,0.11118751764297485,0.8626350950705236,0.11821818178062794,0.1055559500677785,0.4803573601543312
1713524593771990800,3.02699072265625,0.8899704217910767,-0.9472325444221497,2.8580870628356934,0.050785113126039505,-0.3165823519229889,-0.94720458984375,-0.0509529635310173,-0.2191689908504486,0.13531494140625,0.8555527859342348,0.12627791336563074,0.10223308872449002,0.4915606019026092
1713524593781980700,3.036980712890625,0.7527433037757874,-1.0290312767028809,2.749250650405884,0.032505057752132416,-0.3253697454929352,-0.9450280070304871,-0.03277971222996712,-0.14411267638206482,0.15921568870544434,0.8485428732760343,0.1335492125466926,0.0982374759203736,0.5024827931524075
1713524593791969800,3.0469697265625,0.7664541006088257,-1.1445841789245605,2.491065263748169,0.01365075446665287,-0.33310049772262573,-0.9427924752235413,0.07968725264072418,-0.08170968294143677,0.13488543033599854,0.841877900515532,0.14074286959282198,0.09378268688750938,0.5124820487948119
1713524593801959700,3.056959716796875,0.7096014618873596,-1.1137772798538208,2.1602017879486084,-0.004924326203763485,-0.34025657176971436,-0.9403197169303894,0.19230225682258606,-0.12721166014671326,0.04226374626159668,0.8358660248258997,0.1479007294334572,0.0892496739455399,0.5210449838256174
1713524593811949800,3.06694970703125,0.43753212690353394,-1.051135540008545,1.8476135730743408,-0.022023817524313927,-0.34545132517814636,-0.9381781816482544,0.2875877916812897,-0.23604583740234375,-0.08458787202835083,0.8306662510842708,0.1540568097739367,0.084719533707815,0.5282828228154288
1713524593821938700,3.076938720703125,0.1127961128950119,-1.0369884967803955,1.584026575088501,-0.03755719214677811,-0.3474607765674591,-0.9369421005249023,0.352910578250885,-0.2864656150341034,-0.11980533599853516,0.8263309391960159,0.15859555344506573,0.07985239833936553,0.534460776644336
1713524593831928800,3.0869287109375,-0.016973810270428658,-1.0785279273986816,1.29636549949646,-0.05245341360569,-0.3471324145793915,-0.9363480806350708,0.4147733747959137,-0.315297394990921,-0.1191786527633667,0.8228394783519102,0.1621274857235082,0.07443546470803479,0.5395454447412428
1713524593841917700,3.096917724609375,-0.07075554877519608,-1.131769061088562,0.8901008367538452,-0.06664195656776428,-0.34604209661483765,-0.9358491897583008,0.5080481767654419,-0.38337379693984985,-0.13098430633544922,0.8203018722296898,0.16533140277171893,0.06885444058947209,0.5431660404573844
1713524593851907800,3.106907958984375,-0.14020030200481415,-1.110253095626831,0.4886816143989563,-0.07948686182498932,-0.3445540964603424,-0.9353952407836914,0.5780983567237854,-0.4815109372138977,-0.16789144277572632,0.8188882098326986,0.16817161182371643,0.06340879025289992,0.5450869005502308
1713524593861897700,3.116897705078125,-0.20873302221298218,-0.9457568526268005,0.2290513664484024,-0.09032776206731796,-0.34260085225105286,-0.9351286292076111,0.5282397270202637,-0.509770393371582,-0.19661569595336914,0.81841339091302,0.17036539787576305,0.058406488108300826,0.5456773233030909
1713524593871886800,3.126886962890625,-0.23884207010269165,-0.8829496502876282,0.11604852229356766,-0.09937968105077744,-0.340372234582901,-0.9350242614746094,0.42892375588417053,-0.4462030529975891,-0.21324533224105835,0.8183869584308302,0.17197958095064417,0.053952613344667076,0.5456691723213313
1713524593881876700,3.136876708984375,-0.27769413590431213,-0.832522451877594,-0.04136400297284126,-0.1074523851275444,-0.3379368185997009,-0.9350147843360901,0.35198974609375,-0.42294272780418396,-0.22930705547332764,0.8187049440847461,0.17325566080435675,0.04975009687636337,0.5451876254049253
1713524593891866600,3.14686669921875,-0.3439177870750427,-0.7971407771110535,-0.21431560814380646,-0.11463074386119843,-0.3351602554321289,-0.9351617097854614,0.3171454071998596,-0.4366445541381836,-0.20253360271453857,0.8195230230066433,0.1741629886810794,0.045677264350241796,0.5440245596126065
1713524593901855700,3.156855712890625,-0.3750637173652649,-0.7269052267074585,-0.44461938738822937,-0.12065538763999939,-0.3321472704410553,-0.9354787468910217,0.3128550946712494,-0.4508880376815796,-0.16985267400741577,0.8208807116096595,0.17466636113251297,0.04186044402576792,0.542119989285051
1713524593911845600,3.166845703125,-0.41927850246429443,-0.6339675188064575,-0.7302361726760864,-0.1251031905412674,-0.3291666805744171,-0.9359478950500488,0.3272821605205536,-0.471996009349823,-0.1591295599937439,0.8229569090475246,0.1747687744289204,0.0384957671586644,0.5391807074011441
1713524593921834800,3.176834716796875,-0.45736461877822876,-0.49020296335220337,-0.89023357629776,-0.12761639058589935,-0.3260190784931183,-0.936710000038147,0.32303571701049805,-0.4911958873271942,-0.16556966304779053,0.8256529855089665,0.17426685930035943,0.03572213836658249,0.5353989089669755
1713524593931824600,3.18682470703125,-0.36474788188934326,-0.4934035539627075,-1.0663203001022339,-0.12898966670036316,-0.3235624134540558,-0.9373734593391418,0.27579447627067566,-0.4464113712310791,-0.16173237562179565,0.8287084712533926,0.17375511388512757,0.03350260086408495,0.53096984603035
1713524593941814800,3.196814697265625,-0.3193577527999878,-0.5373318195343018,-1.1142035722732544,-0.13027320802211761,-0.3217318654060364,-0.9378259181976318,0.23487220704555511,-0.387649267911911,-0.1516515612602234,0.8319811581881256,0.17349547441692395,0.03140615341520309,0.5260421491554663
1713524593951803600,3.2068037109375,-0.2707970440387726,-0.5451610088348389,-1.1282906532287598,-0.1318192332983017,-0.3204335570335388,-0.9380543828010559,0.2142624706029892,-0.37316998839378357,-0.1543070673942566,0.835240322542447,0.17353061263716735,0.02932465629072724,0.5209613926173567
1713524593961793500,3.21679345703125,-0.2123670130968094,-0.486054003238678,-1.1873576641082764,-0.13296693563461304,-0.3196587860584259,-0.9381567239761353,0.21724124252796173,-0.3326086699962616,-0.12141352891921997,0.8385157868624316,0.1736768497613968,0.0275314975841263,0.5157225084249757
1713524593971782700,3.22678271484375,-0.11896494776010513,-0.45055514574050903,-1.3159786462783813,-0.13336190581321716,-0.3197533190250397,-0.9380684494972229,0.21380625665187836,-0.2608741223812103,-0.11692416667938232,0.8419204298923456,0.17400573231228392,0.026225476228914336,0.5101022439196947
1713524593981772500,3.2367724609375,-0.0021507088094949722,-0.4315398931503296,-1.4223884344100952,-0.13304457068443298,-0.3209823966026306,-0.9376936554908752,0.19978651404380798,-0.19743496179580688,-0.09819501638412476,0.8455169640969816,0.17466205085291495,0.025423005354369352,0.5039324024685692
1713524593991763000,3.246762939453125,0.09753018617630005,-0.3989420235157013,-1.4741841554641724,-0.13233372569084167,-0.32335296273231506,-0.9369795322418213,0.17330357432365417,-0.16834625601768494,-0.06842207908630371,0.849160368919971,0.17573888067176782,0.025021616571375586,0.4974097346670044
1713524594001751600,3.25675146484375,0.11655447632074356,-0.3424297273159027,-1.472052812576294,-0.13100002706050873,-0.32630956172943115,-0.9361416101455688,0.14235258102416992,-0.14511072635650635,-0.05206334590911865,0.852751481383253,0.17692709917584323,0.02502019467867577,0.4908011484219469
1713524594011742000,3.266741943359375,0.08104058355093002,-0.21129168570041656,-1.416535496711731,-0.1287824511528015,-0.32911625504493713,-0.9354665279388428,0.11274546384811401,-0.12858641147613525,-0.06778359413146973,0.8562269378173544,0.17782574439085766,0.025391896463741574,0.48436436467214194
1713524594021731800,3.27673193359375,-0.014875292778015137,-0.23945701122283936,-1.311206579208374,-0.12634088099002838,-0.33118826150894165,-0.9350680708885193,0.08422663807868958,-0.10844796895980835,-0.08682829141616821,0.8595053634068294,0.17833414745467924,0.025746615404661933,0.4783144156462009
1713524594031721000,3.286720947265625,-0.10371248424053192,-0.31706392765045166,-1.2389644384384155,-0.12476363778114319,-0.3321656584739685,-0.9349331855773926,0.07712569832801819,-0.0865965485572815,-0.08586454391479492,0.8626119854293964,0.17855681755235617,0.02551234054922107,0.4726174557569834
1713524594041710800,3.2967109375,-0.10696633905172348,-0.2980838418006897,-1.2486604452133179,-0.12355441600084305,-0.3326397240161896,-0.9349251985549927,0.09021396934986115,-0.07939338684082031,-0.07737338542938232,0.8656638157876462,0.17863948785463285,0.025006690123344597,0.4669997333214975
1713524594051700000,3.306699951171875,-0.06655590236186981,-0.20346546173095703,-1.3322566747665405,-0.12162414193153381,-0.33341166377067566,-0.9349033236503601,0.10421387106180191,-0.08547264337539673,-0.07503014802932739,0.8687533796361561,0.17868973912734853,0.024865868294404927,0.461214937615529
1713524594061689900,3.31668994140625,-0.04561493545770645,-0.13440489768981934,-1.4567224979400635,-0.11853151768445969,-0.33452171087265015,-0.9349039793014526,0.10731632262468338,-0.07909825444221497,-0.09010511636734009,0.8720228463064017,0.17863565743876392,0.0252448328635616,0.4550033936031902
1713524594071679700,3.3266796875,-0.021634768694639206,-0.09413870424032211,-1.509941577911377,-0.11459581553936005,-0.3359197974205017,-0.9348934292793274,0.10135118663311005,-0.06619510054588318,-0.08045691251754761,0.8754273855646872,0.17854190840026082,0.02600155409583983,0.44841225088186876
1713524594081668900,3.3366689453125,-0.03208208456635475,-0.08129747211933136,-1.492987036705017,-0.11033431440591812,-0.33739015460014343,-0.934876561164856,0.08755295723676682,-0.06066584587097168,-0.06657296419143677,0.878812729598152,0.17843045885055303,0.026912580866884053,0.44173105852293715
1713524594091658800,3.34665869140625,-0.1119144931435585,-0.08511138707399368,-1.4460104703903198,-0.10614436864852905,-0.3383386731147766,-0.9350188970565796,0.08316463977098465,-0.08043879270553589,-0.06575930118560791,0.8821007023379158,0.17810878524947232,0.02770948946704567,0.43521011779671553
1713524594101648000,3.35664794921875,-0.2325998991727829,-0.06561491638422012,-1.4494478702545166,-0.10197481513023376,-0.33819058537483215,-0.9355363249778748,0.08052098006010056,-0.10538238286972046,-0.06811046600341797,0.8853898037701464,0.17729213535822907,0.02827235609838195,0.42878079457841634
1713524594111637000,3.366636962890625,-0.29789474606513977,-0.04477514699101448,-1.4607150554656982,-0.09757354855537415,-0.3370874226093292,-0.9364034533500671,0.06899383664131165,-0.10238096117973328,-0.06731969118118286,0.888736091605018,0.17599046223438622,0.02873363463819824,0.4223148908130621
1713524594121627100,3.376627197265625,-0.28764796257019043,-0.021336665377020836,-1.4286010265350342,-0.0930020809173584,-0.3356539011001587,-0.9373831152915955,0.0467679500579834,-0.07064187526702881,-0.07229095697402954,0.8920381935687016,0.17451074040475734,0.029230998291563438,0.415883890339142
1713524594131616000,3.386615966796875,-0.2413308024406433,-0.01073462050408125,-1.3612916469573975,-0.08847475051879883,-0.33440983295440674,-0.9382655620574951,0.026981838047504425,-0.05359065532684326,-0.07386511564254761,0.8951492456065442,0.17314106535445206,0.029822577273060435,0.4096834635861364
1713524594141606100,3.396606201171875,-0.21929234266281128,-0.03494381904602051,-1.2914578914642334,-0.084255650639534,-0.33334752917289734,-0.9390316009521484,0.022457577288150787,-0.025493383407592773,-0.05405610799789429,0.8980459631593689,0.17193181786813536,0.03039138855726765,0.4037687130250091
1713524594151596300,3.40659619140625,-0.12721136212348938,-0.0514700673520565,-1.2451229095458984,-0.08045502007007599,-0.33266162872314453,-0.9396080374717712,0.023448191583156586,0.011952400207519531,-0.04147106409072876,0.9007461412109099,0.1709987100951668,0.030910045600191074,0.3980709245620492
1713524594161585200,3.416585205078125,0.005858002230525017,-0.050459928810596466,-1.2310259342193604,-0.0768323540687561,-0.33304211497306824,-0.9397764205932617,0.0314527228474617,0.04645153880119324,-0.01875019073486328,0.9032532895093397,0.17062519761584147,0.031604295955482004,0.3924558813371275
1713524594171575300,3.4265751953125,0.09393161535263062,-0.04114765301346779,-1.2399177551269531,-0.07313117384910583,-0.3344168961048126,-0.9395834803581238,0.039149850606918335,0.051824092864990234,-0.006324052810668945,0.9056220023361117,0.17072991583591202,0.032550601190604794,0.38683394402778465
1713524594181564200,3.436564208984375,0.08899357914924622,-0.04502228647470474,-1.2351325750350952,-0.06938590854406357,-0.3361738622188568,-0.9392405152320862,0.037739187479019165,0.008170932531356812,-0.02209371328353882,0.9079255496997007,0.17103024145949708,0.033591757322850226,0.38117100954332217
1713524594191554300,3.44655419921875,0.007285243831574917,-0.05941187962889671,-1.217282772064209,-0.06574960798025131,-0.33742958307266235,-0.9390518069267273,0.03897044062614441,-0.014560192823410034,-0.029606640338897705,0.9102132560948153,0.1711275247778059,0.03448874725207444,0.375549855352709
1713524594201544200,3.456544189453125,-0.09958501160144806,-0.06785250455141068,-1.173423171043396,-0.06233307346701622,-0.3377181589603424,-0.9391810297966003,0.042557694017887115,-0.0014694631099700928,-0.04328662157058716,0.9124953879937802,0.17081084140057753,0.03511611576138061,0.37005748581265274
1713524594211533300,3.466533203125,-0.1929946392774582,-0.058397747576236725,-1.0853214263916016,-0.059127673506736755,-0.3369728624820709,-0.9396559000015259,0.03309618681669235,-0.004350990056991577,-0.06170213222503662,0.9147104388839937,0.1700336204982371,0.03550518042506012,0.3648736955066275
1713524594221523200,3.476523193359375,-0.2493404597043991,-0.05173132196068764,-0.9922847151756287,-0.05618603527545929,-0.3354131281375885,-0.9403941631317139,0.015536628663539886,-0.016713947057724,-0.06880688667297363,0.9167871722056191,0.16890232754174503,0.03570609799372213,0.360136606463032
1713524594231512300,3.48651220703125,-0.18998223543167114,0.06196275353431702,-1.1982008218765259,-0.05280396342277527,-0.33346155285835266,-0.9412837624549866,0.003060322254896164,-0.00009557604789733887,-0.06901586055755615,0.9188891329178166,0.16750712734802317,0.0360481959452297,0.355365642033223
1713524594241502200,3.496502197265625,-0.38815391063690186,-0.15607477724552155,-1.22599196434021,-0.048478320240974426,-0.33164578676223755,-0.9421575665473938,0.0021984316408634186,0.030528873205184937,-0.059826016426086426,0.9213846936358141,0.1660601904276095,0.03667722995527764,0.34946966402778656
1713524594251492400,3.506492431640625,-0.5965358018875122,-0.17972417175769806,-0.7993491888046265,-0.04662196710705757,-0.3272817134857178,-0.9437759518623352,0.010672267526388168,0.0050923824310302734,-0.05955040454864502,0.9235485019272194,0.1637739012049073,0.03591830363706712,0.34488571620397923
1713524594261481200,3.516481201171875,-0.5957900881767273,-0.24777992069721222,-0.7556635141372681,-0.04633115231990814,-0.3218645751476288,-0.9456514120101929,0.05286192148923874,-0.037922412157058716,-0.03011763095855713,0.9253878911933232,0.16121193431525055,0.034423850502537975,0.3412960130501785
1713524594271471400,3.526471435546875,-0.43395331501960754,-0.17383992671966553,-0.771579384803772,-0.0458831712603569,-0.3172376751899719,-0.9472354650497437,0.0777740478515625,0.034675419330596924,0.008835196495056152,0.9271480691010135,0.15900448235604048,0.03316392643353179,0.3376600120586965
1713524594281461200,3.536461181640625,-0.21703936159610748,-0.015567991882562637,-0.5740058422088623,-0.044719450175762177,-0.3144332766532898,-0.9482256770133972,0.0074574947357177734,0.015879809856414795,-0.0003522038459777832,0.9285867087805928,0.1575453274436419,0.032659539720769126,0.33442400416358675
1713524594291450400,3.546450439453125,0.05281677842140198,0.15663200616836548,-0.27414578199386597,-0.0426320880651474,-0.3137458264827728,-0.9485494494438171,-0.025162700563669205,-0.0036827921867370605,-0.011258900165557861,0.9293499311103037,0.15691497390680278,0.033210933411817016,0.3325407518656737
1713524594301440300,3.556440185546875,0.29736393690109253,0.37178558111190796,0.02042832225561142,-0.039787657558918,-0.31548625230789185,-0.9480956792831421,0.003731146454811096,0.038829147815704346,-0.0014282464981079102,0.9293941442533485,0.1572939166438366,0.03479652726018385,0.3320758872308375
1713524594311429400,3.566429443359375,0.41129070520401,0.38723325729370117,0.39103442430496216,-0.036611564457416534,-0.3188489079475403,-0.9470981955528259,0.03673364222049713,0.0667736828327179,-0.018127024173736572,0.9286667339649441,0.15834286083728655,0.037127414152885244,0.33335747782998015
1713524594321419300,3.576419189453125,0.3382258117198944,0.2791499197483063,0.48925021290779114,-0.034882307052612305,-0.32220762968063354,-0.9460261464118958,0.063400998711586,0.06439512968063354,-0.012927711009979248,0.9275468959173315,0.15959260704356637,0.03895030773811481,0.3356633539946723
1713524594331409200,3.5864091796875,0.20268253982067108,-0.07808543741703033,0.2202942967414856,-0.03508101403713226,-0.32465988397598267,-0.9451799988746643,0.08061325550079346,0.07899338006973267,0.006215214729309082,0.926669908858528,0.16075153018910607,0.03960976853876185,0.33745052108354756
1713524594341398300,3.596398193359375,0.02108318731188774,-0.2799687683582306,-0.11209189891815186,-0.03716807812452316,-0.3256326913833618,-0.9447655081748962,0.03967052698135376,0.05446872115135193,0.02310413122177124,0.9265556187262948,0.1615924461844984,0.03879586644148658,0.3374574016232926
1713524594351388200,3.60638818359375,-0.14154967665672302,-0.11103352904319763,-0.20789186656475067,-0.03860465809702873,-0.3250279128551483,-0.9449161291122437,-0.03396613523364067,-0.005523204803466797,0.03207439184188843,0.9269481821461674,0.16158747891649972,0.037833984310357074,0.33648938381308147
1713524594361378300,3.61637841796875,-0.14826110005378723,0.15700244903564453,-0.19224871695041656,-0.0376974456012249,-0.32359451055526733,-0.9454445838928223,-0.0833505168557167,-0.049147188663482666,0.032312870025634766,0.9274090570975851,0.16076333345228933,0.03785300296378959,0.3356109835605308
1713524594371367200,3.6263671875,-0.04094178229570389,0.22374844551086426,-0.20990382134914398,-0.03510185703635216,-0.32269036769866943,-0.9458534717559814,-0.07640936225652695,-0.052111268043518066,0.011908769607543945,0.927775203079429,0.15989889118960046,0.038802160550872315,0.3349029484302576
1713524594381357300,3.636357421875,0.0656357929110527,0.0444873571395874,-0.32103005051612854,-0.03293311595916748,-0.32292091846466064,-0.9458528161048889,-0.03611289709806442,-0.025315165519714355,-0.005975186824798584,0.9281730747082363,0.15968294269708364,0.039685814906440874,0.3337980982347061
1713524594391346200,3.64634619140625,-0.0032520326785743237,-0.15014897286891937,-0.43854278326034546,-0.032267015427351,-0.3233910799026489,-0.945715069770813,0.008478574454784393,0.008480161428451538,-0.023843586444854736,0.9287931663436934,0.1598769299477826,0.03977207255695659,0.3319649456128697
1713524594401336300,3.65633642578125,-0.10627402365207672,-0.17995001375675201,-0.4989049434661865,-0.03243282064795494,-0.3229224681854248,-0.9458695650100708,0.031013764441013336,0.016342848539352417,-0.0270003080368042,0.9296615368159505,0.15977425758988203,0.03920991544416059,0.3296423416359689
1713524594411326200,3.666326171875,-0.0758567824959755,-0.09168487042188644,-0.5041571855545044,-0.032087184488773346,-0.32212749123573303,-0.94615238904953,0.029767856001853943,-0.0034035444259643555,-0.02238398790359497,0.9305898104561968,0.1594265698214104,0.03881991476748535,0.32722907619232194
1713524594421315000,3.676315185546875,0.09462733566761017,-0.03382768854498863,-0.4995797276496887,-0.031073082238435745,-0.32228216528892517,-0.946133553981781,0.00791025161743164,-0.02587762475013733,-0.029559195041656494,0.9314158217636892,0.15943044661801364,0.038925047403317266,0.32485605799886036
1713524594431305200,3.68630517578125,0.2606748342514038,-0.055504754185676575,-0.502571702003479,-0.029885435476899147,-0.3240761160850525,-0.9455588459968567,-0.02088054269552231,-0.00542217493057251,-0.05651634931564331,0.932101160395387,0.1602151256026904,0.03939150568423319,0.32243888370017226
1713524594441294000,3.696294189453125,0.468038946390152,-0.020957430824637413,-0.4623052477836609,-0.028717555105686188,-0.3275536298751831,-0.9443960785865784,-0.025908902287483215,0.047890543937683105,-0.05421537160873413,0.9326036557182688,0.16183404845588273,0.040146078123080214,0.32007576516156394
1713524594451284200,3.7062841796875,2.350646495819092,-0.21077902615070343,-0.5765489935874939,-0.031435754150152206,-0.341683030128479,-0.939289391040802,-0.013531886041164398,0.0917288064956665,-0.047374427318573,0.9323028286837227,0.16939995257408919,0.040730480875681006,0.3169482605794818
1713524594461274000,3.716274169921875,1.020425796508789,-0.8662378191947937,-1.0391610860824585,-0.03205148130655289,-0.3580978512763977,-0.9331337809562683,-0.01216847449541092,0.0813949704170227,-0.03402930498123169,0.9321004029592894,0.17784819029321908,0.04246335627863098,0.3126590829950857
1713524594471263200,3.72626318359375,0.898062527179718,-0.7244148850440979,-0.8433574438095093,-0.03613097965717316,-0.36673516035079956,-0.9296234846115112,-0.05435362085700035,-0.06096866726875305,0.0011567473411560059,0.9329557783951791,0.1830663182633868,0.04092634890590985,0.30725457537815115
1713524594481253000,3.736253173828125,0.5987842082977295,-0.6809800863265991,-0.7122795581817627,-0.040050189942121506,-0.3743390738964081,-0.9264265894889832,-0.040470436215400696,0.20411202311515808,-0.036158859729766846,0.9335545524970703,0.18770153610350052,0.03943139183736802,0.3028022603521247
1713524594491243000,3.746242919921875,0.0818018764257431,-0.3160252869129181,-0.5771258473396301,-0.04226073995232582,-0.37760454416275024,-0.9250020980834961,0.07726441323757172,0.12694841623306274,0.1299886703491211,0.9343182208896986,0.18984361004626135,0.03818857477786895,0.2992497389254026
1713524594501232000,3.756232177734375,-0.03969978913664818,0.012156314216554165,-0.4892614781856537,-0.04149137809872627,-0.37778881192207336,-0.9249616861343384,0.024294734001159668,-0.16218921542167664,-0.03643357753753662,0.9351325657135309,0.18992146158972428,0.038065856970716884,0.296661112831066
1713524594511222000,3.766221923828125,-0.09484469145536423,-0.055330052971839905,-0.4607228636741638,-0.03976595029234886,-0.37734872102737427,-0.9252170324325562,-0.0007308609783649445,-0.050004154443740845,0.04029887914657593,0.9358883594746592,0.18951980440804025,0.03838898241784471,0.29448519994467887
1713524594521211100,3.776211181640625,-0.27456676959991455,-0.0626755878329277,-0.5885495543479919,-0.038497194647789,-0.37587177753448486,-0.9258716702461243,-0.0648658275604248,0.009874463081359863,0.021040737628936768,0.9368319372926132,0.18867875923433716,0.03826866334370172,0.2920302415020898
1713524594531201000,3.786200927734375,-0.5110774040222168,-0.0557902455329895,-0.5803586840629578,-0.03682957962155342,-0.3724430203437805,-0.9273239970207214,-0.07785546779632568,0.030997097492218018,0.014466941356658936,0.9380762501557721,0.18680486823270215,0.03797297199450092,0.28926619509377777
1713524594541191200,3.796191162109375,-0.8992653489112854,-0.030840687453746796,-0.46695438027381897,-0.0352778434753418,-0.36619529128074646,-0.9298690557479858,-0.02061508595943451,-0.00151100754737854,0.02087247371673584,0.9394754561806312,0.18351154238832684,0.03726903719623133,0.28691528671536903
1713524594551180000,3.806179931640625,-1.3487268686294556,-0.11257629841566086,-0.4002528488636017,-0.03436180576682091,-0.3557623028755188,-0.933944582939148,0.027403809130191803,-0.0197870135307312,0.007308840751647949,0.9411318623457595,0.17819199932267468,0.035711751933853134,0.2850317135891467
1713524594561170200,3.816170166015625,-1.5115487575531006,-0.0786883756518364,-0.37581783533096313,-0.034031014889478683,-0.34227505326271057,-0.9389833211898804,0.04806910827755928,-0.025339722633361816,-0.002468705177307129,0.9429722538632233,0.17142955336175617,0.033470118008502615,0.28336362351320526
1713524594571160000,3.82616015625,-1.4462798833847046,0.2795957326889038,-0.4043537378311157,-0.03197682648897171,-0.3283173739910126,-0.9440260529518127,0.037820957601070404,-0.06995227932929993,-0.016270577907562256,0.9447543069373479,0.1641915444121521,0.03206416403916363,0.28187304572582067
1713524594581149200,3.836149169921875,-1.2221320867538452,1.735875129699707,-0.27987438440322876,-0.020295891910791397,-0.3156251013278961,-0.9486668705940247,-0.02766246907413006,-0.10809621214866638,-0.038332581520080566,0.9460076722423348,0.15615950558193825,0.03578774796965676,0.28178515543754773
1713524594591139000,3.84613916015625,-1.1261299848556519,1.647132158279419,-0.8449898958206177,-0.001479812548495829,-0.30462005734443665,-0.9524728059768677,-0.1697695553302765,-0.11379122734069824,-0.033016085624694824,0.9473018412529596,0.1480085632287744,0.043093688641716574,0.28081237967122286
1713524594601128200,3.856128173828125,-0.9242920875549316,0.49755337834358215,-1.1284857988357544,0.011898632161319256,-0.2945399880409241,-0.9555650949478149,-0.43465864658355713,-0.18690532445907593,0.01896536350250244,0.9492471315487819,0.1412868590949468,0.047491915341171684,0.2769701898612359
1713524594611118000,3.8661181640625,-0.47744566202163696,-0.21950247883796692,-0.8985602855682373,0.015811968594789505,-0.287627637386322,-0.9576117992401123,-0.2728462517261505,0.07009834051132202,0.012787580490112305,0.9511357893262925,0.13754889383239896,0.04769077864198053,0.2722989675739524
1713524594621108200,3.876108154296875,-0.14897482097148895,-0.1843988299369812,-0.5264272093772888,0.015480703674256802,-0.2846033275127411,-0.9585203528404236,0.08505947142839432,0.2257806956768036,0.00843191146850586,0.9523614973161355,0.1362679618981624,0.04659243348785766,0.2688268582838999
1713524594631097000,3.88609716796875,-0.03282281383872032,0.2662365138530731,-0.34611451625823975,0.017049001529812813,-0.2837146520614624,-0.9587571620941162,0.16199764609336853,0.0948566198348999,-0.03753495216369629,0.9529652075854614,0.13570840973401815,0.04695359739103032,0.2669005080597505
1713524594641087200,3.896087158203125,0.00964075606316328,0.5339462757110596,-0.4374356269836426,0.022150559350848198,-0.2834569811820984,-0.958729088306427,0.05109164118766785,0.036997050046920776,-0.07610666751861572,0.9533776450793175,0.13496651049216576,0.049188287307003024,0.2653971955761582
1713524594651077400,3.906077392578125,0.10476551204919815,0.5718361735343933,-0.5981121063232422,0.028967512771487236,-0.2838428020477295,-0.9584331512451172,-0.1298128366470337,0.04940676689147949,-0.04849433898925781,0.9538932080978039,0.13435731221323688,0.05226399982491123,0.2632571113186765
1713524594661066200,3.916066162109375,0.09103984385728836,0.5504621267318726,-0.6411122679710388,0.036150261759757996,-0.2845861613750458,-0.9579685926437378,-0.2466147243976593,0.042810678482055664,-0.02105051279067993,0.9544965194324009,0.1339220533579346,0.05550293795219404,0.2606160048623287
1713524594671056400,3.926056396484375,0.13341931998729706,0.4910789430141449,-0.5680555701255798,0.0429118387401104,-0.28527823090553284,-0.9574836492538452,-0.2354167103767395,0.02812182903289795,-0.006215691566467285,0.9550732873777116,0.13353330444213402,0.058540910949251825,0.2580250705991554
1713524594681045200,3.936045166015625,0.2162438929080963,0.358743280172348,-0.46311184763908386,0.048455193638801575,-0.2867039740085602,-0.9567930698394775,-0.13361448049545288,0.02976122498512268,0.001302957534790039,0.955488173433804,0.13366098814819868,0.06114096854920398,0.2558104404038167
1713524594691035400,3.946035400390625,0.23865434527397156,0.19775652885437012,-0.414028525352478,0.052322447299957275,-0.28868356347084045,-0.9559938311576843,-0.05101018399000168,0.013872772455215454,0.003769099712371826,0.9558020427949329,0.13427563775241647,0.0630329014055031,0.25384912083163164
1713524594701025300,3.956025390625,0.08889200538396835,0.10875608772039413,-0.3392496109008789,0.05478416755795479,-0.29003074765205383,-0.9554479718208313,-0.03278098255395889,0.017539292573928833,0.012714207172393799,0.9561261612598393,0.1347495333773422,0.06417606722592481,0.25208497068864727
1713524594711014100,3.96601416015625,0.06047549471259117,0.13961893320083618,-0.3106868863105774,0.0568431057035923,-0.2903851568698883,-0.9552200436592102,-0.050770096480846405,0.03692138195037842,0.030003368854522705,0.9564528134648372,0.13476433978921848,0.06502731639442126,0.25061530958332817
1713524594721004300,3.97600439453125,0.1458417922258377,0.17939776182174683,-0.31810593605041504,0.0592915304005146,-0.291117399930954,-0.9548482298851013,-0.0726582258939743,0.03199264407157898,0.045928001403808594,0.9567270031001467,0.1349183231838782,0.06612810006481963,0.24919352793019922
1713524594730994200,3.985994140625,0.20793116092681885,0.18341994285583496,-0.26717421412467957,0.06188175082206726,-0.29259562492370605,-0.954231858253479,-0.09316226094961166,-0.006781816482543945,0.047402024269104004,0.9569149328230757,0.13542494466971883,0.06741034939908457,0.24785015922331258
1713524594740983300,3.9959833984375,0.22644305229187012,0.14538466930389404,-0.24233360588550568,0.06419692933559418,-0.2945196032524109,-0.9534867405891418,-0.09752211719751358,-0.010274738073348999,0.029795944690704346,0.9570186719966499,0.13617891226571788,0.06864354349159969,0.246695227756167
1713524594750973200,4.00597314453125,0.18213705718517303,0.08786997944116592,-0.23930639028549194,0.06598186492919922,-0.29628729820251465,-0.9528170228004456,-0.07184122502803802,0.02059149742126465,0.029614508152008057,0.9571401636948345,0.13692378639814423,0.06959438211316388,0.24554278033069116
1713524594760963300,4.01596337890625,0.11246023327112198,0.08583585917949677,-0.2264646291732788,0.0674731656908989,-0.29749903082847595,-0.9523348808288574,-0.0582568421959877,0.012571632862091064,0.026813030242919922,0.9572939653106524,0.13742530718519036,0.07033384720577211,0.24444976745458116
1713524594770952200,4.0259521484375,0.13669243454933167,0.08893364667892456,-0.2405862957239151,0.06898122280836105,-0.29836156964302063,-0.9519569277763367,-0.06489185243844986,-0.00402185320854187,0.03024977445602417,0.9574748461539647,0.13775253501315268,0.07103369511464037,0.2433520631977808
1713524594780942000,4.035942138671875,0.2056342214345932,0.09126763790845871,-0.22180354595184326,0.07052262127399445,-0.2998587191104889,-0.9513733983039856,-0.08079177141189575,0.008949875831604004,0.037677109241485596,0.95760167711477,0.138395350550092,0.07183338233799702,0.24225132936706983
1713524594790931200,4.04593115234375,0.17869311571121216,0.043706249445676804,-0.25153639912605286,0.07187264412641525,-0.3014540672302246,-0.950767993927002,-0.09952156245708466,0.02511739730834961,0.03205156326293945,0.9577314671356764,0.1391158809123226,0.0725450115781334,0.2411106419841532
1713524594800921000,4.055921142578125,0.25165891647338867,-0.00019942200742661953,-0.25911709666252136,0.07286100834608078,-0.30321013927459717,-0.9501341581344604,-0.10060147196054459,0.05322536826133728,0.02131640911102295,0.9578933120285142,0.13997519034556877,0.07307445394972643,0.23980697167916082
1713524594810911200,4.0659111328125,0.3565009534358978,-0.002184808487072587,-0.1653304249048233,0.07346179336309433,-0.305934339761734,-0.9492141604423523,-0.08518052846193314,0.05819264054298401,0.028529345989227295,0.9579392546637657,0.1413564358533184,0.07356134842004686,0.2386619748669573
1713524594820900000,4.075900146484375,0.4220040738582611,0.014567007310688496,-0.07589029520750046,0.07385598123073578,-0.30949270725250244,-0.9480292797088623,-0.07303200662136078,0.03672659397125244,0.017945051193237305,0.9578033626211426,0.14314877778640817,0.07412001245388239,0.23796504246567968
1713524594830890200,4.08589013671875,0.5295887589454651,0.02750704064965248,-0.033735379576683044,0.07422249764204025,-0.3139495253562927,-0.9465340375900269,-0.07168952375650406,0.056182801723480225,0.008393168449401855,0.9575163368049703,0.14537651276128372,0.0748240797060374,0.2375488946449084
1713524594840880000,4.095880126953125,0.5420651435852051,0.007059556432068348,-0.02150081843137741,0.0744592547416687,-0.31908953189849854,-0.9447950720787048,-0.07539002597332001,0.07609331607818604,0.009507596492767334,0.9571402790060347,0.14795863140713222,0.07556931653351448,0.23723393288702158
