time,seconds_elapsed,rotationRateX,rotationRateY,rotationRateZ,gravityX,gravityY,gravityZ,accelerationX,accelerationY,accelerationZ,quaternionW,quaternionX,quaternionY,quaternionZ
1714155258837006800,0.0520068359375,0.005763155408203602,-0.0032848597038537264,-0.04051816835999489,-0.876332700252533,0.030706537887454033,-0.4807266294956207,-0.0017800331115722656,0.013406634330749512,-0.01304781436920166,0.8604436566763005,-0.017843433260033764,-0.5092330534902171,0
1714155258846995700,0.06199560546875,0.009495574980974197,-0.0008704380597919226,-0.029604868963360786,-0.8763626217842102,0.030284032225608826,-0.4806988537311554,-0.0015517473220825195,0.012516885995864868,-0.012511014938354492,0.8604355869183099,-0.017686244332111717,-0.5092521641992876,-0.00014895885311327905
1714155258856985900,0.07198583984375,0.004603082314133644,-0.004619103856384754,-0.016792135313153267,-0.876384437084198,0.030009396374225616,-0.48067641258239746,-0.0008738040924072266,0.00992286205291748,-0.007375955581665039,0.8604290687002836,-0.01758537691554471,-0.5092666811337438,-0.00024794741684885935
1714155258866974700,0.081974609375,0.023969216272234917,-0.006147758103907108,-0.011865086853504181,-0.8764010071754456,0.02977546490728855,-0.4806607961654663,0.0028048157691955566,0.003290325403213501,-0.0032411813735961914,0.8604245531202309,-0.017470120398417083,-0.509278310056686,-0.0002827303200469977
1714155258876963800,0.0919638671875,0.030654283240437508,-0.016337810084223747,-0.0070655373856425285,-0.8764493465423584,0.02955600619316101,-0.4805860221385956,0.008636295795440674,-0.00102207250893116,-0.004612952470779419,0.860402755096979,-0.01732965753390356,-0.5093198128206171,-0.00026011539753706403
1714155258886953700,0.10195361328125,0.042957503348588943,-0.01371220126748085,0.000009349314495921135,-0.8765163421630859,0.029397526755928993,-0.4804735481739044,0.012456953525543213,0.0024475734680891037,-0.003092736005783081,0.8603700827382059,-0.01718256010189481,-0.5093799963334287,-0.00016607875745233702
1714155258896943400,0.111943359375,0.05354143679141998,-0.027102841064333916,0.0005688795354217291,-0.8765864372253418,0.029247084632515907,-0.4803547263145447,0.011474251747131348,0.0014230571687221527,-0.005774974822998047,0.8603355205119358,-0.017004324350989558,-0.5094443015401715,-0.000011544998258505856
1714155258906933200,0.121933349609375,0.05811690539121628,-0.0317966602742672,0.006802141200751066,-0.876698911190033,0.029133515432476997,-0.48015642166137695,0.01187664270401001,-0.00035542435944080353,-0.010474711656570435,0.8602779421309463,-0.01693261769775095,-0.5095439853039448,-5.551115123125783e-17
1714155258916922400,0.13192236328125,0.05752089247107506,-0.0369165875017643,0.009640006348490715,-0.8768272399902344,0.029073450714349747,-0.4799257516860962,0.01307302713394165,-0.00035640597343444824,-0.011758267879486084,0.8602109203133499,-0.016767608977434734,-0.5096626078739536,0.0002218045064301677
1714155258926911200,0.1419111328125,0.06044483184814453,-0.03427207097411156,0.009377151727676392,-0.8769620060920715,0.02900574915111065,-0.47968360781669617,0.010186553001403809,0.0007946789264678955,-0.011496901512145996,0.8601404999008178,-0.016590094828351193,-0.5097871782514244,0.00045717556343921606
1714155258936901400,0.1519013671875,0.057265814393758774,-0.033356476575136185,0.013911448419094086,-0.8771004676818848,0.028940804302692413,-0.47943416237831116,0.006769716739654541,0.0011495351791381836,-0.01359260082244873,0.8600677656833727,-0.01641065933099431,-0.5099152954372714,0.0006983970125429839
1714155258946890200,0.16189013671875,0.05772637948393822,-0.031021680682897568,0.014060920104384422,-0.8772427439689636,0.028828833252191544,-0.4791807532310486,0.006301581859588623,0.005549222230911255,-0.013311982154846191,0.8599939587053742,-0.01621718500643901,-0.5100457100831931,0.0009170467821425499
1714155258956880400,0.17188037109375,0.06456112116575241,-0.026798442006111145,0.01037110947072506,-0.8773517608642578,0.028653312474489212,-0.47899147868156433,0.005495131015777588,0.005434809252619743,-0.014065772294998169,0.859938587284003,-0.015986371779193653,-0.5101457589495771,0.0011356726717313692
1714155258966869200,0.181869140625,0.07222931832075119,-0.02382635325193405,0.009150849655270576,-0.8774411678314209,0.0284676905721426,-0.47883886098861694,0.0026700496673583984,0.006658047437667847,-0.014233708381652832,0.8598939609996787,-0.015743333711564306,-0.5102281020522138,0.0013645807451629355
1714155258976858400,0.1918583984375,0.08203241229057312,-0.004340803250670433,0.010849147103726864,-0.8774644136428833,0.0282361451536417,-0.4788098931312561,-0.0007551312446594238,0.01038387231528759,-0.013591259717941284,0.8598850579674389,-0.015460431029461652,-0.5102509500233738,0.0016146535415784147
1714155258986848300,0.20184814453125,0.0866970419883728,0.002851329743862152,0.012334592640399933,-0.8774198889732361,0.027939729392528534,-0.4789089560508728,-0.0034394264221191406,0.012892812490463257,-0.013339638710021973,0.8599133725933633,-0.015128148674870973,-0.510212361784292,0.0018834652205643176
1714155258996837400,0.21183740234375,0.08216514438390732,0.010855726897716522,0.016668353229761124,-0.8773378133773804,0.027673492208123207,-0.4790745675563812,-0.005428791046142578,0.013357369229197502,-0.01025959849357605,0.8599607518712358,-0.01480012407627157,-0.5101408384444656,0.002174341957953796
1714155259006827300,0.2218271484375,0.06619752198457718,0.013628876768052578,0.02406415343284607,-0.8772401213645935,0.02750534377992153,-0.4792633056640625,-0.004855155944824219,0.009695589542388916,-0.0037537217140197754,0.8600149014458599,-0.014532392468535521,-0.5100560391772542,0.0024597250192353592
1714155259016816400,0.23181640625,0.03436342626810074,0.0014366584364324808,0.03531920164823532,-0.8771524429321289,0.027576295658946037,-0.4794195592403412,-0.0034932494163513184,0.004787592217326164,0.0012548267841339111,0.8600594777906228,-0.014419924517134225,-0.5099826402219876,0.002718043785628399
1714155259026805500,0.241805419921875,0.04539301618933678,-0.009542223066091537,0.037168167531490326,-0.8771255016326904,0.027753641828894615,-0.4794585704803467,0.0007522702217102051,-0.0034769177436828613,0.005367934703826904,0.8600699077511422,-0.01435938671310083,-0.50996521672662,0.002993820815542003
1714155259036795400,0.25179541015625,0.04217085987329483,-0.004383680410683155,0.02961997129023075,-0.8771119713783264,0.027899084612727165,-0.4794749617576599,0.006125092506408691,-0.008322060108184814,0.005018115043640137,0.8600737723640336,-0.014288898900313235,-0.5099591640528389,0.003255231350388077
1714155259046784500,0.261784423828125,0.05540980398654938,-0.0060518840327858925,0.026153400540351868,-0.8770877122879028,0.02797987312078476,-0.4795146584510803,0.0009738802909851074,-0.0011091232299804688,0.007102489471435547,0.8600842693841207,-0.014176744694802124,-0.5099428326317821,0.003523418029386327
1714155259056774400,0.2717744140625,0.05902877449989319,-0.01184425875544548,0.026675116270780563,-0.8770973086357117,0.028051171451807022,-0.4794929325580597,-0.00460129976272583,-0.0016687214374542236,0.006424665451049805,0.8600767220988481,-0.014051093421542482,-0.5099569584676851,0.0038053549962085986
1714155259066763500,0.281763427734375,0.06656685471534729,-0.021623652428388596,0.02002713270485401,-0.877144455909729,0.02809055708348751,-0.47940441966056824,-0.001456618309020996,-0.0037680529057979584,0.002918064594268799,0.8600497058933392,-0.0138990165637915,-0.5100045186190986,0.00410081342218005
1714155259076752400,0.29175244140625,0.07178211957216263,-0.019892597571015358,0.018665190786123276,-0.8772290945053101,0.02806074172258377,-0.47925111651420593,-0.000029146671295166016,-0.0007322430610656738,0.002215564250946045,0.8600035267099959,-0.013699525876487706,-0.5100850496324626,0.00440854068196711
1714155259086742500,0.301742431640625,0.07531426846981049,-0.021682508289813995,0.019189169630408287,-0.8773193955421448,0.02794811688363552,-0.47909241914749146,-0.004043459892272949,0.0010283291339874268,0.0027129650115966797,0.8599558470032993,-0.013461559435474307,-0.5101691674795321,0.004699837129913453
1714155259096731400,0.3117314453125,0.07299572229385376,-0.023621290922164917,0.017734551802277565,-0.8774217367172241,0.027808818966150284,-0.47891315817832947,-0.004597306251525879,0.0015948712825775146,0.00549393892288208,0.8599021720770466,-0.013210335252394928,-0.5102635674786987,0.0049872528436658015
1714155259106721300,0.32172119140625,0.058926403522491455,-0.02356616221368313,0.019111204892396927,-0.8775373697280884,0.027636241167783737,-0.4787110984325409,-0.0028488636016845703,-0.0000941157341003418,0.0058716535568237305,0.8598418909826637,-0.012961897010764112,-0.5103689263621494,0.005237267699337855
1714155259116710400,0.33171044921875,0.04690968617796898,-0.02911672368645668,0.024707837030291557,-0.8776620030403137,0.027505436912178993,-0.4784902036190033,-0.0008322000503540039,0.0011352896690368652,0.007664978504180908,0.8597762881498856,-0.012751841667493713,-0.51048240064546,0.005463434859655059
1714155259126699500,0.341699462890625,0.03801478073000908,-0.023205304518342018,0.03499815985560417,-0.8777897357940674,0.027566825971007347,-0.4782524108886719,-0.0003230571746826172,0.0027218759059906006,0.0097464919090271,0.8597055731060983,-0.012642112975473657,-0.5106015832187722,0.005708791175321359
1714155259136689400,0.351689453125,0.0278625451028347,-0.021140821278095245,0.039346303790807724,-0.8779045343399048,0.027700873091816902,-0.4780338704586029,-0.0009711384773254395,0.001245051622390747,0.007101774215698242,0.8596404043714065,-0.01257661782364683,-0.5107101872134351,0.005950669217942961
1714155259146678500,0.361678466796875,0.027944304049015045,-0.025351013988256454,0.04009265452623367,-0.8780080676078796,0.027897443622350693,-0.47783219814300537,-0.001081228256225586,0.0017046034336090088,0.004290878772735596,0.8595800390069452,-0.01255268681448729,-0.5108094921153865,0.006183680240584966
1714155259156668400,0.37166845703125,0.0235183984041214,-0.03146722912788391,0.041785892099142075,-0.8781337738037109,0.02813277393579483,-0.47758734226226807,0.0023860931396484375,0.0012556612491607666,0.002184450626373291,0.8595070922481995,-0.012548155447858395,-0.5109294208467624,0.006421939825328515
1714155259166657500,0.381657470703125,0.024761879816651344,-0.0434969924390316,0.03985916078090668,-0.8783048391342163,0.028384599834680557,-0.4772578179836273,0.003381192684173584,-0.0008424818515777588,0.0009394288063049316,0.8594095237044541,-0.012555769370793418,-0.5110904431948667,0.006655870471207914
1714155259176647400,0.3916474609375,0.03314684331417084,-0.04036937654018402,0.04004398360848427,-0.8785071969032288,0.028606778010725975,-0.47687193751335144,0.0023932456970214844,0.0011936463415622711,0.0014232397079467773,0.8592952410302426,-0.012534034590617166,-0.511279693348375,0.006910019529570599
1714155259186636500,0.401636474609375,0.03085082396864891,-0.03811714053153992,0.034852284938097,-0.8787022233009338,0.028775783255696297,-0.47650226950645447,-0.0006312131881713867,0.0037101805210113525,0.00404435396194458,0.8591857245094343,-0.012490150976118192,-0.5114614917724041,0.00714918326972841
1714155259196625200,0.411625244140625,0.028904054313898087,-0.025335833430290222,0.03665897250175476,-0.8788548111915588,0.02893676981329918,-0.4762110412120819,-0.007894396781921387,0.008432000875473022,0.0061334967613220215,0.8590990199734729,-0.012446115108786515,-0.511604896038126,0.007380577077910122
1714155259206615600,0.421615478515625,0.03043276071548462,-0.014956163242459297,0.029018763452768326,-0.8789529800415039,0.029099401086568832,-0.4760199189186096,-0.012846887111663818,0.005705893039703369,0.005042076110839844,0.8590414367279159,-0.012407333991250352,-0.5116992295680333,0.007604635821842287
1714155259216604200,0.431604248046875,0.02298017218708992,-0.012914584018290043,0.02206524834036827,-0.8790228962898254,0.029203176498413086,-0.4758843183517456,-0.012075066566467285,0.004183053970336914,0.0004509091377258301,0.8590002766495148,-0.01235886815414905,-0.5117666417420133,0.0077873717170157675
1714155259226594600,0.441594482421875,0.005983079317957163,-0.006851631216704845,0.017970772460103035,-0.8790704011917114,0.029299749061465263,-0.4757906198501587,-0.010059118270874023,0.0030336081981658936,0.000830233097076416,0.8589719757195746,-0.01234661058975911,-0.5118127172982306,0.007902269228780567
1714155259236583200,0.451583251953125,-0.010255545377731323,-0.011458633467555046,0.018630437552928925,-0.8791053295135498,0.02947206236422062,-0.47571542859077454,-0.00858992338180542,-0.0011364836245775223,0.0035931766033172607,0.8589493384434082,-0.012400652413219249,-0.5118481326026773,0.007979903773308594
1714155259246572300,0.461572265625,-0.02228749357163906,-0.014703694730997086,0.02302984707057476,-0.8791589736938477,0.029727624729275703,-0.4756002724170685,-0.005423426628112793,-0.006259622052311897,0.0075369179248809814,0.8589154792520515,-0.01252817028019726,-0.5119012640396059,0.008015555596375512
1714155259256562200,0.471562255859375,-0.01776065304875374,-0.01322617381811142,0.01995203085243702,-0.8792229294776917,0.03000754304230213,-0.4754646420478821,-0.0024451017379760742,-0.009133517742156982,0.007462263107299805,0.8588755906252161,-0.01266096794279531,-0.5119642362077246,0.00806613945130874
1714155259266551300,0.48155126953125,-0.015624744817614555,-0.004342667758464813,0.013257244601845741,-0.8792603015899658,0.030253471806645393,-0.4753800928592682,-0.0039337873458862305,-0.008326586335897446,0.005821287631988525,0.8588506319007914,-0.012778119329815124,-0.5120026088017984,0.008109802064057925
1714155259276541200,0.491541259765625,-0.01625804416835308,-0.013199541717767715,0.01035759411752224,-0.8793157935142517,0.030486823990941048,-0.4752623438835144,-0.006533145904541016,-0.008132696151733398,0.007443070411682129,0.8588160448009468,-0.012899126962629681,-0.5120570686374826,0.008134708364832155
1714155259286530300,0.5015302734375,-0.013940827921032906,-0.016728229820728302,0.011281178332865238,-0.8794072866439819,0.030701132491230965,-0.47507914900779724,-0.003756105899810791,-0.013489218428730965,0.006695300340652466,0.858762463327628,-0.013010066889121069,-0.512143691202676,0.008157885416112398
1714155259296519200,0.511519287109375,-0.016507849097251892,-0.02603677660226822,0.008583130314946175,-0.8795179128646851,0.03089122846722603,-0.4748620390892029,0.001176297664642334,-0.013175757601857185,0.008141428232192993,0.8586991615525219,-0.013113214851200455,-0.5122470275655918,0.008170486036719105
1714155259306509300,0.52150927734375,-0.020742541179060936,-0.03593574836850166,0.012432463467121124,-0.8796720504760742,0.031104376539587975,-0.47456249594688416,0.0007048249244689941,-0.007224380970001221,0.010145902633666992,0.858611847799653,-0.013231452099671415,-0.5123901685498966,0.008180302076257473
1714155259316498200,0.531498291015625,-0.02088901586830616,-0.04341629892587662,0.014007722958922386,-0.8798707723617554,0.03130720928311348,-0.4741806983947754,0.002520918846130371,-0.003673553466796875,0.013563573360443115,0.8585006641650164,-0.013347364988639171,-0.5125734131534863,0.008183964782075948
1714155259326488300,0.54148828125,-0.021328704431653023,-0.04949896037578583,0.02101423405110836,-0.8801135420799255,0.031494684517383575,-0.4737176299095154,0.0010851621627807617,-0.00193839892745018,0.00980454683303833,0.858365745691072,-0.013449783868623638,-0.5127965433397927,0.008195274124389473
1714155259336477200,0.551477294921875,-0.024103451520204544,-0.05030563101172447,0.018261324614286423,-0.8803554773330688,0.031683675944805145,-0.4732551574707031,-0.002304375171661377,-0.0010440349578857422,0.00552743673324585,0.8582309289799144,-0.01355515510713945,-0.5130191863856393,0.008203170828855466
1714155259346466300,0.56146630859375,-0.03375580906867981,-0.043753720819950104,0.017709782347083092,-0.8805814385414124,0.0318894125521183,-0.4728206992149353,-0.005740523338317871,0.001481562852859497,0.004131674766540527,0.8581044945855422,-0.013683300486469097,-0.5132274560561197,0.008189358703000638
1714155259356456200,0.571456298828125,-0.03887674957513809,-0.04281895235180855,0.016342584043741226,-0.8807975649833679,0.03212756663560867,-0.4724019169807434,-0.008042097091674805,-0.0013048052787780762,0.003102540969848633,0.857982884824537,-0.013846171151804976,-0.5134270451297632,0.008149173959057288
1714155259366445300,0.5814453125,-0.040914386510849,-0.04356676712632179,0.009070421569049358,-0.8810102939605713,0.03231354430317879,-0.47199225425720215,-0.0072647929191589355,-0.003581225872039795,0.002326667308807373,0.8578642587459278,-0.014004272471147411,-0.5136221935047453,0.00806625579437159
1714155259376435200,0.591435302734375,-0.03143326938152313,-0.04031664505600929,0.008445910178124905,-0.8812118768692017,0.032435134053230286,-0.4716075360774994,-0.00643765926361084,-0.005030330270528793,-0.00043845176696777344,0.8577529843521197,-0.01412686654751591,-0.5138060573993151,0.007980062059856352
1714155259386424300,0.60142431640625,-0.029460396617650986,-0.033380176872015,0.004213748499751091,-0.881397008895874,0.03256557881832123,-0.4712523818016052,-0.0050623416900634766,-0.007968425750732422,-0.0030061006546020508,0.8576500194700567,-0.014242089868337193,-0.5139756473792798,0.007914889144653603
1714155259396413400,0.611413330078125,-0.025684837251901627,-0.01881401799619198,0.006212983280420303,-0.8815372586250305,0.03269192576408386,-0.47098109126091003,-0.004113256931304932,-0.007331822067499161,-0.005596667528152466,0.8575713721234124,-0.014347424045235035,-0.5141046607513633,0.007862258278298284
1714155259406403300,0.6214033203125,-0.030816053971648216,-0.01484750583767891,0.006991891656070948,-0.8816238641738892,0.03284600377082825,-0.47080811858177185,-0.0037671923637390137,-0.008721861988306046,-0.005510240793228149,0.8575214345915642,-0.014472264340775837,-0.5141852677954408,0.007804046733337455
1714155259416392400,0.631392333984375,-0.042419712990522385,-0.0205722376704216,0.0073399669490754604,-0.881708562374115,0.033060990273952484,-0.47063446044921875,-0.000935971736907959,-0.01365182176232338,-0.003990203142166138,0.8574714568932579,-0.014641079697941983,-0.5142649244764406,0.007731786114795969
1714155259426382300,0.64138232421875,-0.061234522610902786,-0.02994523197412491,0.011344827711582184,-0.8818351030349731,0.03339031711220741,-0.4703742563724518,0.00526350736618042,-0.017536461353302002,-0.0019615888595581055,0.8573964920642585,-0.01488908769821301,-0.5143842844393592,0.007638855814467438
1714155259436371200,0.65137109375,-0.08293609321117401,-0.037874262779951096,0.007944770157337189,-0.8820011019706726,0.03377903997898102,-0.470035195350647,0.008084535598754883,-0.018657594919204712,0.0002932548522949219,0.8572990410453349,-0.015209672767224403,-0.514539672797022,0.007482966076814257
1714155259446361300,0.661361328125,-0.09885188937187195,-0.041904691606760025,0.003444960340857506,-0.8821876049041748,0.034207534044981,-0.46965378522872925,0.0067147016525268555,-0.016232702881097794,-0.00031694769859313965,0.8571896035886554,-0.015593791989162303,-0.5147134547246714,0.007260214802070175
1714155259456350200,0.67135009765625,-0.12364058941602707,-0.04481339454650879,-0.002145014703273773,-0.882392406463623,0.03465310111641884,-0.4692363440990448,0.004386484622955322,-0.01188698410987854,-0.0025502443313598633,0.8570704454070974,-0.016037124491918825,-0.5149025583389966,0.006955890861220171
1714155259466339300,0.68133935546875,-0.14009541273117065,-0.04511619731783867,-0.010878252796828747,-0.882604718208313,0.03513031080365181,-0.46880125999450684,0.005010843276977539,-0.008427444845438004,-0.004251748323440552,0.8569465763460944,-0.016552917988995774,-0.5150974392905802,0.006562232735416451
1714155259476329200,0.6913291015625,-0.15850824117660522,-0.051951996982097626,-0.023639854043722153,-0.8828242421150208,0.03560185432434082,-0.46835219860076904,0.006634116172790527,-0.00580143928527832,-0.0021068453788757324,0.8568190908653548,-0.017112847689423838,-0.5152970504678318,0.006090296697880859
1714155259486318300,0.701318359375,-0.18534742295742035,-0.0350654274225235,-0.042380183935165405,-0.8830364346504211,0.036010291427373886,-0.46792080998420715,0.004542231559753418,-0.004882365465164185,-0.0027823448181152344,0.856697294251582,-0.01771503356681642,-0.5154859574755591,0.0054874917390231315
1714155259496308200,0.71130810546875,-0.2119438797235489,-0.012176621705293655,-0.05572475120425224,-0.883154571056366,0.036361824721097946,-0.46767061948776245,-0.003640413284301758,-0.0042726099491119385,0.0005685091018676758,0.8566287596390065,-0.018369653734359614,-0.5155843761377974,0.004742072432634803
1714155259506297300,0.72129736328125,-0.2581358253955841,0.0100852744653821,-0.08358640968799591,-0.8831770420074463,0.0366789884865284,-0.46760329604148865,-0.00944674015045166,-0.0075041987001895905,0.0007453262805938721,0.8566138005237722,-0.019125949745071952,-0.5155895112032487,0.0037936018654756154
1714155259516286500,0.731286376953125,-0.31591522693634033,0.04319635406136513,-0.11685195565223694,-0.8830868601799011,0.03695561736822128,-0.46775200963020325,-0.014908075332641602,-0.01113775372505188,0.0007719993591308594,0.8566618032437152,-0.02001793570039792,-0.5154835402625468,0.002578566707293839
1714155259526276400,0.7412763671875,-0.37843745946884155,0.05312914773821831,-0.11645028740167618,-0.8829016089439392,0.037368156015872955,-0.4680687487125397,-0.022188663482666016,-0.02133116126060486,-0.003214240074157715,0.8567572921348342,-0.021125372709630524,-0.5152856889938114,0.001134828475539973
1714155259536265500,0.751265380859375,-0.473184734582901,0.06474772095680237,-0.14610165357589722,-0.8826640844345093,0.038100842386484146,-0.4684574604034424,-0.022258341312408447,-0.032287243753671646,0.0008366405963897705,0.8568712723181954,-0.022555473930975317,-0.515036420758003,-0.0005372750291096628
1714155259546255400,0.76125537109375,-0.5961825251579285,0.08044704794883728,-0.18911351263523102,-0.8823846578598022,0.03901388868689537,-0.46890848875045776,-0.024139881134033203,-0.03033161535859108,0.013250529766082764,0.8569988757624172,-0.024362811162087022,-0.5147350845234065,-0.0026653648379781902
1714155259556244500,0.771244384765625,-0.7718424797058105,0.07876846194267273,-0.2483222335577011,-0.8820886611938477,0.04019170254468918,-0.4693659245967865,-0.038748741149902344,-0.041885435581207275,0.015584766864776611,0.8571197102823531,-0.026669813300092937,-0.5143984451041514,-0.005372045065145992
1714155259566233300,0.7812333984375,-1.0068436861038208,0.05731537193059921,-0.3151721656322479,-0.8818663358688354,0.04184495657682419,-0.46963903307914734,-0.060760557651519775,-0.06853258609771729,0.013813138008117676,0.8571705236567129,-0.029713014595903475,-0.5140988491826989,-0.008843907379604221
1714155259576223500,0.791223388671875,-1.1781139373779297,0.06763511896133423,-0.3321274220943451,-0.8817165493965149,0.04413890466094017,-0.4697100520133972,-0.08500391244888306,-0.07325267791748047,0.014250427484512329,0.8571369928400507,-0.03358915232175566,-0.513825591589766,-0.013080416957302499
1714155259586212400,0.80121240234375,-1.2845810651779175,0.1609770506620407,-0.33448389172554016,-0.8813822865486145,0.0469430610537529,-0.47006532549858093,-0.10999637842178345,-0.053855303674936295,0.010653704404830933,0.8571579019832851,-0.037975309170097477,-0.5133470639775597,-0.017686485038891753
1714155259596202500,0.811202392578125,-1.4535272121429443,0.25693127512931824,-0.29846835136413574,-0.8805441856384277,0.05053442716598511,-0.47126221656799316,-0.13756787776947021,-0.0876132920384407,0.017755746841430664,0.85739200062159,-0.042964260767917095,-0.5123699489210208,-0.022581339796574618
1714155259606191400,0.82119140625,-1.6230366230010986,0.2894708514213562,-0.3114966154098511,-0.879396378993988,0.05512959137558937,-0.4728876054286957,-0.1573314666748047,-0.12445029616355896,0.033373355865478516,0.85770988360461,-0.04875227429058332,-0.511057151733271,-0.027884379475484944
1714155259616180500,0.831180419921875,-1.7572252750396729,0.26544007658958435,-0.3153744637966156,-0.8782762289047241,0.06031212583184242,-0.47433459758758545,-0.16408205032348633,-0.12697777152061462,0.031280338764190674,0.8579257602088411,-0.05512761108163053,-0.5096995662438228,-0.03362634693319394
1714155259626170400,0.84117041015625,-1.8834774494171143,0.23333673179149628,-0.24237671494483948,-0.8772727251052856,0.06644283980131149,-0.47537127137184143,-0.17019730806350708,-0.1368011236190796,0.009306728839874268,0.8579753812705364,-0.062152641677603065,-0.5083811757517813,-0.03954516122909768
1714155259636159500,0.851159423828125,-2.0033187866210938,0.18985876441001892,-0.15301328897476196,-0.8764388561248779,0.07392633706331253,-0.4758044481277466,-0.1668044924736023,-0.13120785355567932,-0.007243096828460693,0.8578107262318289,-0.06994358378357293,-0.5071544874018503,-0.04542045213571111
1714155259646149400,0.8611494140625,-2.0646557807922363,0.26128047704696655,0.0499420203268528,-0.8755115270614624,0.08311934769153595,-0.4759943187236786,-0.18511146306991577,-0.10573286563158035,-0.014118045568466187,0.8575587398138296,-0.07848044514039165,-0.5058099087743523,-0.05089247453435808
1714155259656138500,0.871138427734375,-1.9730241298675537,0.5067259073257446,0.23923231661319733,-0.8736391067504883,0.09411401301622391,-0.4773857891559601,-0.23027318716049194,-0.05558557063341141,-0.03990241885185242,0.857678535579482,-0.0874566185077002,-0.5036451518363915,-0.05550069907338451
1714155259666127400,0.88112744140625,-1.9643042087554932,0.5968318581581116,0.2550642788410187,-0.8705519437789917,0.1058030053973198,-0.4805672764778137,-0.32357025146484375,-0.0068040043115615845,-0.08406895399093628,0.8583363447273868,-0.096332672521667,-0.5004361805382574,-0.059516741497752046
1714155259676117500,0.891117431640625,-2.038205146789551,0.6473850607872009,0.11594260483980179,-0.8674917221069336,0.11698295176029205,-0.48350098729133606,-0.4242715835571289,0.04192206263542175,-0.1104474663734436,0.8588648221417405,-0.10517755092235245,-0.4971792383724579,-0.06404495732455479
1714155259686106400,0.9011064453125,-2.0993144512176514,0.8773242235183716,0.21900542080402374,-0.863621175289154,0.12844327092170715,-0.48750466108322144,-0.46982908248901367,0.07521578669548035,-0.11378324031829834,0.8596534096427086,-0.11423649112236281,-0.49315078889150005,-0.06890823956383552
1714155259696096500,0.911096435546875,-2.0494701862335205,1.1797597408294678,0.2662520110607147,-0.8581977486610413,0.14071515202522278,-0.4936554431915283,-0.5293753743171692,0.10601945221424103,-0.17193296551704407,0.861057126055113,-0.12337253372116427,-0.48780272283125503,-0.07354043291990603
1714155259706085400,0.92108544921875,-2.084827184677124,1.3902308940887451,0.4172079861164093,-0.8512538075447083,0.1538224220275879,-0.5017028450965881,-0.5451237559318542,0.10653829574584961,-0.24091196060180664,0.8630077285615423,-0.13256063549178462,-0.481223709913975,-0.0779048048353298
1714155259716074200,0.93107421875,-2.1405980587005615,1.3721574544906616,0.5558220744132996,-0.8435497879981995,0.16857624053955078,-0.5099076628684998,-0.49885737895965576,0.05595684051513672,-0.2943679094314575,0.8650220489141751,-0.14227470519458302,-0.4741350754010012,-0.08179659788659088
1714155259726064400,0.941064453125,-2.274759292602539,1.5601561069488525,0.8396535515785217,-0.8348242044448853,0.18565846979618073,-0.5182657837867737,-0.4667656421661377,-0.04536914825439453,-0.3319997787475586,0.8671211893268105,-0.15280004379664341,-0.46638960763177917,-0.08505103586119511
1714155259736053200,0.95105322265625,-2.478633403778076,1.6900064945220947,1.0207940340042114,-0.8245664834976196,0.20580418407917023,-0.5270054936408997,-0.4977753162384033,-0.16683322191238403,-0.3313472270965576,0.869366912367419,-0.16456612634742,-0.4576191086188455,-0.08777223990995642
1714155259746043000,0.96104296875,-2.696491003036499,1.9164073467254639,1.2301397323608398,-0.8125184774398804,0.2287604659795761,-0.5361738801002502,-0.5427518486976624,-0.18576118350028992,-0.30588245391845703,0.8717455327267429,-0.17755664124628073,-0.44764573725621376,-0.09025881954345633
1714155259756032000,0.971031982421875,-2.728346586227417,2.0415782928466797,1.4028867483139038,-0.7986261248588562,0.2541334629058838,-0.5455387234687805,-0.576770544052124,-0.1887648105621338,-0.28910183906555176,0.8742080215299433,-0.19146969734457214,-0.4365432269149438,-0.09235650772691906
1714155259766022000,0.98102197265625,-2.759852647781372,2.2191526889801025,1.530644178390503,-0.7829980850219727,0.28078222274780273,-0.5550453662872314,-0.5821752548217773,-0.19611123204231262,-0.28546983003616333,0.8767573839567107,-0.2055950681944641,-0.42450910933489316,-0.09391052997918248
1714155259776011000,0.991010986328125,-2.837275981903076,2.4270849227905273,1.566591739654541,-0.7654502987861633,0.3084386885166168,-0.5647578239440918,-0.5861579179763794,-0.19939938187599182,-0.301209032535553,0.8793584244039829,-0.22001991587676362,-0.41135427342689085,-0.09543360270428297
1714155259786000100,1.001000244140625,-2.7945008277893066,2.599132776260376,1.5848671197891235,-0.7460559606552124,0.33639195561408997,-0.5746659636497498,-0.5987010598182678,-0.18450599908828735,-0.31928551197052,0.8819940905844066,-0.23440086994998385,-0.3971438638057576,-0.09705350437172783
1714155259795990000,1.010989990234375,-2.759276866912842,2.754173517227173,1.6188634634017944,-0.7249823212623596,0.3641623556613922,-0.5846250057220459,-0.5960930585861206,-0.1953391134738922,-0.3757479190826416,0.8846356013425416,-0.24843265902934838,-0.38205850344023873,-0.0986529532254733
1714155259805979100,1.020979248046875,-2.691720962524414,2.9662623405456543,1.6287072896957397,-0.7020756006240845,0.39183586835861206,-0.5946044325828552,-0.5692102909088135,-0.16864559054374695,-0.4394837021827698,0.8872779675943442,-0.2621434470195084,-0.36603085977456234,-0.10019967777720057
1714155259815969000,1.030968994140625,-2.562185525894165,3.293020725250244,1.6907626390457153,-0.6766340732574463,0.418995201587677,-0.6054826378822327,-0.5631576776504517,-0.1495250165462494,-0.45976394414901733,0.8901644147859592,-0.27518638341157614,-0.34861315379190516,-0.10172745907286768
1714155259825958000,1.0409580078125,-2.4829349517822266,3.6109116077423096,1.7885994911193848,-0.6479565501213074,0.44593971967697144,-0.6174867749214172,-0.5897752642631531,-0.22485512495040894,-0.47417277097702026,0.8933729730012726,-0.2876003292647321,-0.329458118781048,-0.10309202574128473
1714155259835947000,1.050947021484375,-2.331256628036499,3.8531265258789062,1.7898002862930298,-0.61644446849823,0.4723280072212219,-0.630001962184906,-0.5959425568580627,-0.2296369969844818,-0.5052672624588013,0.8967187081459131,-0.2993209990361632,-0.3088785463004582,-0.10438643293628203
1714155259845937000,1.06093701171875,-2.0960311889648438,4.056843280792236,1.7757233381271362,-0.5826529264450073,0.49709609150886536,-0.6429704427719116,-0.5725136399269104,-0.10656264424324036,-0.5119215250015259,0.9001716294442876,-0.30984645590418053,-0.2872454388401812,-0.10571774398439177
1714155259855926000,1.070926025390625,-1.8636255264282227,4.236678123474121,1.740234136581421,-0.5468079447746277,0.5198350548744202,-0.6563327312469482,-0.5511839389801025,-0.001051485538482666,-0.505883514881134,0.9037198015933089,-0.3189660551503455,-0.26475328059202075,-0.1070370222994913
1714155259865916000,1.080916015625,-1.6023720502853394,4.426855087280273,1.744293451309204,-0.5088937878608704,0.5405036807060242,-0.6699872612953186,-0.5325033068656921,0.07448655366897583,-0.46609067916870117,0.9073321135348513,-0.3266854129247423,-0.24141876758633427,-0.10836076652162707
1714155259875905000,1.090905029296875,-1.3281660079956055,4.661643028259277,1.791259527206421,-0.46843284368515015,0.5590365529060364,-0.6841408610343933,-0.5062222480773926,0.10575836896896362,-0.3567069172859192,0.911085602376871,-0.33288797398849923,-0.21706025749530938,-0.10951416353166332
1714155259885894100,1.10089404296875,-1.0626795291900635,4.828107833862305,1.758117914199829,-0.42550984025001526,0.575281023979187,-0.6985650062561035,-0.48878148198127747,0.129705548286438,-0.2684454917907715,0.914906155313598,-0.3375692951295368,-0.19174064692442194,-0.11058534086732241
1714155259895884000,1.110884033203125,-0.5391346216201782,4.884456157684326,1.7042962312698364,-0.3812488913536072,0.5879442095756531,-0.7134220004081726,-0.46971845626831055,0.18094617128372192,-0.21870696544647217,0.9188284495902165,-0.34012965878822515,-0.16613496776952547,-0.11164834577616756
1714155259905873200,1.120873046875,0.043595168739557266,4.982902526855469,1.7508587837219238,-0.335479199886322,0.5959227085113525,-0.7296094298362732,-0.4352116584777832,0.18781447410583496,-0.1741533875465393,0.9231440891166843,-0.3398423886079859,-0.14036532309328792,-0.11229375500928046
1714155259915863000,1.130863037109375,0.44941216707229614,5.10493803024292,1.7765026092529297,-0.2877810299396515,0.5994446873664856,-0.7468923330307007,-0.38120999932289124,0.19054853916168213,-0.12807714939117432,0.9277894440857865,-0.3369008862188957,-0.11424376631341167,-0.1124851898211538
1714155259925852200,1.14085205078125,0.6345067620277405,5.184534549713135,1.8063139915466309,-0.23823010921478271,0.6000310182571411,-0.7636813521385193,-0.36118084192276,0.2127894163131714,-0.07131010293960571,0.9322997782260602,-0.33237936412084956,-0.0876543060555928,-0.11250687531618242
1714155259935841000,1.150841064453125,0.7754814624786377,5.3077850341796875,1.8983200788497925,-0.18674419820308685,0.5984672904014587,-0.7790786623954773,-0.3989033102989197,0.18720769882202148,0.006709277629852295,0.9364472270682822,-0.3267983275985544,-0.060527104459368264,-0.11227616582552957
1714155259945831200,1.1608310546875,0.7486625909805298,5.297290802001953,1.932708740234375,-0.13348786532878876,0.5954462885856628,-0.7922276258468628,-0.43566492199897766,0.10253643989562988,0.07472890615463257,0.9400242940801306,-0.3206285534099618,-0.032916673598868906,-0.11166024307380262
1714155259955820000,1.170820068359375,0.5592570304870605,5.183804988861084,1.890570878982544,-0.0804617628455162,0.5923274755477905,-0.8016695380210876,-0.4138314127922058,0.10182535648345947,0.12341636419296265,0.9426196037346679,-0.3148547643369217,-0.005630501015825157,-0.11091927208415453
1714155259965810200,1.18081005859375,0.6069743037223816,5.068880558013916,1.7596155405044556,-0.02830396220088005,0.5886933207511902,-0.807860791683197,-0.39120587706565857,0.14569687843322754,0.17875611782073975,0.9443212888183603,-0.3092275658357899,0.021164379080064216,-0.1103975138645476
1714155259975799000,1.190799072265625,0.662604570388794,5.014165878295898,1.719260573387146,0.02261105179786682,0.5835755467414856,-0.811743974685669,-0.39024099707603455,0.17368757724761963,0.23448872566223145,0.9453895951716842,-0.3031432189932223,0.047246021698505974,-0.11004821879368626
1714155259985789200,1.2007890625,0.803226888179779,4.924319267272949,1.7354357242584229,0.07297633588314056,0.5768421292304993,-0.8135892748832703,-0.429482638835907,0.21843063831329346,0.25357645750045776,0.9459366978026722,-0.2964633026518095,0.07290311142789707,-0.10953652073739295
1714155259995778000,1.210778076171875,1.0907829999923706,4.753365516662598,1.8420311212539673,0.1224813237786293,0.5676393508911133,-0.8141154050827026,-0.4759358763694763,0.24292278289794922,0.29598796367645264,0.9461742177777699,-0.2887214938425213,0.09788871312173568,-0.10868298435991752
1714155260005767200,1.22076708984375,1.5957621335983276,4.41942834854126,2.065387725830078,0.17086321115493774,0.5537934899330139,-0.8149346113204956,-0.48917680978775024,0.23116427659988403,0.3442468047142029,0.946621164414909,-0.27880299155967775,0.12166175281877055,-0.10665590507258438
1714155260015757000,1.230757080078125,2.0440480709075928,3.993699312210083,2.1808106899261475,0.21650975942611694,0.5348052382469177,-0.816766083240509,-0.42552465200424194,0.3087921142578125,0.39231234788894653,0.9474447074467902,-0.2665557850666502,0.14340491965920094,-0.1035931347159621
1714155260025746200,1.24074609375,2.3061695098876953,3.7653701305389404,2.37565279006958,0.2600964903831482,0.5114960074424744,-0.8189759850502014,-0.3678692877292633,0.43010854721069336,0.5024782419204712,0.9484694714377688,-0.2524866811592607,0.16359242031026733,-0.09946731083685323
1714155260035736000,1.250736083984375,2.5807065963745117,3.538559675216675,2.4172630310058594,0.3019620180130005,0.48481136560440063,-0.8208391070365906,-0.3591824471950531,0.4578918516635895,0.6936571598052979,0.9494514934234864,-0.23709943548159185,0.18265897246537877,-0.09466420660574548
1714155260045725200,1.26072509765625,2.829547643661499,3.337780237197876,2.377495765686035,0.34144747257232666,0.4547119140625,-0.822587788105011,-0.39732515811920166,0.4622497260570526,0.8455981016159058,0.9503883606873478,-0.22029467038523862,0.20044039463896537,-0.08975467771155843
1714155260055713800,1.2707138671875,2.9746644496917725,3.144885301589966,2.155545473098755,0.37788495421409607,0.4227820336818695,-0.8236858248710632,-0.4006815552711487,0.4596337378025055,0.941788911819458,0.9510725569742968,-0.20277668151924066,0.21688406076660793,-0.08546351403282254
1714155260065704200,1.2807041015625,2.9336862564086914,2.8910164833068848,2.079663038253784,0.4114321172237396,0.38999080657958984,-0.8237904906272888,-0.3850954473018646,0.44683170318603516,0.9990377426147461,0.9514304757368348,-0.18501794049309192,0.23210581904559116,-0.08170282873941814
1714155260075692800,1.29069287109375,2.8851475715637207,2.507873773574829,1.9705108404159546,0.4412344694137573,0.3575044572353363,-0.82310551404953,-0.3348654508590698,0.3332151472568512,1.0293128490447998,0.951569055467105,-0.16774479116901037,0.24557876738292894,-0.07790360045085959
1714155260085683200,1.30068310546875,2.838796615600586,2.1829144954681396,1.9158344268798828,0.46713733673095703,0.32507142424583435,-0.8222598433494568,-0.24399280548095703,0.27772700786590576,1.060953140258789,0.951646747832872,-0.15075511176984263,0.25718278107322456,-0.07415001062068427
1714155260095671800,1.310671875,2.7395689487457275,1.849873661994934,1.8947968482971191,0.4895699620246887,0.29312074184417725,-0.8212195038795471,-0.17964869737625122,0.23460447788238525,1.0613927841186523,0.9516738541994119,-0.1343016800490378,0.2671204105596495,-0.07018923590946796
1714155260105661000,1.320660888671875,2.5726516246795654,1.592276930809021,1.8605514764785767,0.5088197588920593,0.26183241605758667,-0.8200891613960266,-0.1473696231842041,0.21166306734085083,1.0705316066741943,0.9516800268940142,-0.11846832320580936,0.2755370833585702,-0.06595219316777706
1714155260115650800,1.33065087890625,2.229550838470459,1.336666464805603,1.8461189270019531,0.525436520576477,0.23243926465511322,-0.8184671401977539,-0.13616955280303955,0.16900423169136047,1.1039743423461914,0.9515622772730552,-0.10390585502078777,0.282789689135863,-0.06134147791321304
1714155260125640000,1.340639892578125,1.7675449848175049,1.0644930601119995,1.8652238845825195,0.5392261147499084,0.206244558095932,-0.8165160417556763,-0.10474735498428345,0.109307199716568,1.1133910417556763,0.9513804294189239,-0.09140199937805145,0.2887692223581577,-0.055976215503728
1714155260135629800,1.3506298828125,1.2670265436172485,0.8220311403274536,1.845090389251709,0.5505399107933044,0.18378101289272308,-0.814328134059906,-0.04716771841049194,0.03818857669830322,1.0717592239379883,0.9511511696168764,-0.081248804389845,0.2936572170529643,-0.04975395350385092
1714155260145619000,1.360618896484375,0.8456641435623169,0.6131945848464966,1.8200745582580566,0.5595743656158447,0.16513174772262573,-0.8121625781059265,-0.011997461318969727,-0.03131215274333954,1.0455152988433838,0.9509164233524454,-0.07340888381274611,0.2975396715759996,-0.04288557465419357
1714155260155608000,1.370608154296875,0.587142288684845,0.4126838445663452,1.8410663604736328,0.566569447517395,0.14902707934379578,-0.8104258179664612,0.0074967145919799805,-0.08640502393245697,1.0040446519851685,0.9507663513273967,-0.06717105701254646,0.3004582057376412,-0.035444388882328315
1714155260165598000,1.380597900390625,0.4351760447025299,0.2724628150463104,1.8548252582550049,0.5719034671783447,0.1344965547323227,-0.809220016002655,0.04178977012634277,-0.07291208207607269,0.9393928050994873,0.9507111719075197,-0.06197126582183436,0.30257155950662096,-0.0275356369165492
1714155260175586800,1.3905869140625,0.41864898800849915,0.1837713122367859,1.8933607339859009,0.5761054158210754,0.12030477076768875,-0.8084734082221985,0.07105034589767456,-0.004154875874519348,0.8629015684127808,0.9507166509179783,-0.057079037234309876,0.3041467874392513,-0.019353798260245303
1714155260185577000,1.400576904296875,0.42497003078460693,0.1262102872133255,1.9088666439056396,0.5794761180877686,0.10601481050252914,-0.8080645203590393,0.07132649421691895,0.021319791674613953,0.7667132616043091,0.9507427741621411,-0.05222838793055398,0.3053521400209561,-0.010976323789033238
1714155260195565800,1.41056591796875,0.44090744853019714,0.1028146743774414,1.909437894821167,0.5822665691375732,0.0913560688495636,-0.8078488111495972,0.06885647773742676,0.06916637718677521,0.6812618970870972,0.9507456901338296,-0.047197736267219764,0.30634618020168025,-0.002627712057231557
1714155260205556000,1.420555908203125,0.2624656558036804,0.1357574462890625,1.9117460250854492,0.5848224759101868,0.07729505747556686,-0.8074702024459839,0.09404104948043823,0.05029892921447754,0.5918177366256714,0.950631718351922,-0.04254837262996583,0.30733458858809515,0.005857792986981636
1714155260215544800,1.430544921875,-0.09410496056079865,0.14364919066429138,1.9420160055160522,0.5872611403465271,0.06532725691795349,-0.8067569136619568,0.1157875657081604,-0.04988536238670349,0.5004367232322693,0.950346342123068,-0.03918492802078735,0.3083603383017933,0.014838567793339308
1714155260225534000,1.440533935546875,-0.5739403367042542,0.2083379030227661,1.9420443773269653,0.5898491144180298,0.056551337242126465,-0.805530846118927,0.11825025081634521,-0.21290814876556396,0.4191630482673645,0.9498226928148537,-0.03776614096093031,0.30952915674258874,0.024538785668690888
1714155260235523800,1.45052392578125,-1.1096514463424683,0.219479501247406,1.9229642152786255,0.5926632285118103,0.051896970719099045,-0.8037766814231873,0.1255527138710022,-0.33975404500961304,0.37833118438720703,0.9490334946789045,-0.03879823765333454,0.31081563074287977,0.03498003346680667
1714155260245513000,1.460512939453125,-1.5373815298080444,0.15560518205165863,1.9413224458694458,0.5951206684112549,0.0511762797832489,-0.8020051717758179,0.16290539503097534,-0.4373762309551239,0.35728782415390015,0.9480887602241971,-0.04216775762730396,0.3118000874579151,0.04615341041032428
1714155260255502800,1.4705029296875,-1.751713514328003,0.1646687239408493,1.9580957889556885,0.5973559021949768,0.05278163403272629,-0.8002374768257141,0.2264966368675232,-0.4821487069129944,0.3632867932319641,0.9469730213516441,-0.04700105011725572,0.3125254630911977,0.0579725876640978
1714155260265492000,1.480491943359375,-1.6855686902999878,0.24056561291217804,2.0117881298065186,0.5999393463134766,0.05477486923336983,-0.7981682419776917,0.29158592224121094,-0.4191700220108032,0.38045889139175415,0.9456130496404127,-0.05215966281640563,0.3133612228012634,0.07000044186740823
1714155260275481000,1.490481201171875,-1.529402494430542,0.3983997106552124,2.012723684310913,0.603578507900238,0.0554613433778286,-0.7953722476959229,0.33822447061538696,-0.2820848822593689,0.38539910316467285,0.9439134190543186,-0.056704757686641044,0.31479904620444454,0.0819370670192116
1714155260285471000,1.500470947265625,-1.3983968496322632,0.49336352944374084,2.043433666229248,0.6082770824432373,0.05472320318222046,-0.7918360829353333,0.3737175464630127,-0.14072176814079285,0.387386679649353,0.9418862834169092,-0.06055335604108095,0.31688363693152544,0.09363933814697012
1714155260295460000,1.510460205078125,-1.4718124866485596,0.5113446712493896,2.113006591796875,0.6133856773376465,0.0533059723675251,-0.7879825234413147,0.427095890045166,-0.1105111837387085,0.385928750038147,0.9396066615592381,-0.06420645230653418,0.31919627547431517,0.10550193231960048
1714155260305450000,1.520449951171875,-1.7367277145385742,0.47682422399520874,2.2245306968688965,0.6184327006340027,0.05250513181090355,-0.784081757068634,0.5159361958503723,-0.20623743534088135,0.3863157033920288,0.9370764541892755,-0.06848825247990875,0.3213541334620924,0.11801983622662116
1714155260315439000,1.530439208984375,-2.0794551372528076,0.4024581015110016,2.378923177719116,0.6230735778808594,0.05314353480935097,-0.7803557515144348,0.6143074035644531,-0.31606775522232056,0.4110625386238098,0.9342586723281326,-0.07397039099255079,0.3230333055577876,0.13167593444960662
1714155260325429000,1.540428955078125,-2.421159505844116,0.2998987138271332,2.5878782272338867,0.6271774172782898,0.05519920960068703,-0.7769179344177246,0.7152907848358154,-0.37348228693008423,0.4658675789833069,0.9310863722990073,-0.08072222918268983,0.32407552227998937,0.1467551847301251
1714155260335418000,1.550418212890625,-2.7093300819396973,0.17377805709838867,2.8606560230255127,0.6305685639381409,0.058014579117298126,-0.7739622592926025,0.8434609770774841,-0.38150089979171753,0.5382598042488098,0.9275036699943153,-0.08843434509518056,0.32434277316377413,0.16345636469799202
1714155260345407000,1.560406982421875,-2.8397083282470703,0.09064056724309921,3.2124884128570557,0.6333604454994202,0.060308102518320084,-0.7715033888816833,1.015244960784912,-0.2982079088687897,0.6133003234863281,0.9233940089028414,-0.09647704819136418,0.3239451966261618,0.18192051568142065
1714155260355396900,1.57039697265625,-2.9374635219573975,0.09004295617341995,3.6571223735809326,0.6361202597618103,0.06076618656516075,-0.7691933512687683,1.2037692070007324,-0.12021446228027344,0.7073495388031006,0.9185107114356302,-0.10429404659823296,0.32330490980486953,0.20232326553391727
1714155260365386000,1.580385986328125,-3.0539989471435547,0.08562397211790085,4.162073135375977,0.6391213536262512,0.05888596177101135,-0.7668483257293701,1.4041677713394165,0.02331310510635376,0.7962367534637451,0.9125912747212055,-0.11178520587966818,0.3226141941457307,0.22494739773247957
1714155260375375000,1.590375,-3.182988405227661,0.08477602154016495,4.733748912811279,0.6423015594482422,0.054276950657367706,-0.7645277976989746,1.6165485382080078,0.11396642029285431,0.8886580467224121,0.9053806669863447,-0.11888769489093287,0.3218723567909474,0.2500995919276609
1714155260385365000,1.600364990234375,-3.3224856853485107,0.13766692578792572,5.310108661651611,0.6457009315490723,0.04677208885550499,-0.76215660572052,1.7989706993103027,0.17667759954929352,0.93805992603302,0.8965856227723531,-0.12561708838692426,0.3211573618176663,0.2778713569066697
1714155260395354000,1.61035400390625,-3.444392442703247,0.2410614937543869,5.934045791625977,0.6495447158813477,0.03614876791834831,-0.7594636082649231,1.9187688827514648,0.2450401782989502,0.9344514012336731,0.8858693600146359,-0.13196738600448327,0.3207067386000996,0.30816776729381423
1714155260405344000,1.620343994140625,-3.5642261505126953,0.26180005073547363,6.596595764160156,0.6533117294311523,0.021991722285747528,-0.7567695379257202,2.0558557510375977,0.2881583869457245,0.9289191961288452,0.8729411973927226,-0.1377818561521718,0.32036132431401043,0.34111357666029957
1714155260415333000,1.6303330078125,-3.610074996948242,0.3180076777935028,7.225155830383301,0.6563798785209656,0.0038130648899823427,-0.7544208765029907,2.2567975521087646,0.31411904096603394,0.9388080835342407,0.8575513817071949,-0.14275512999333256,0.3200164424281806,0.3765847955176805
1714155260425323000,1.640322998046875,-3.5404114723205566,0.42256978154182434,7.751164436340332,0.6585927605628967,-0.018415264785289764,-0.752274215221405,2.439826488494873,0.3553140163421631,1.0693824291229248,0.8395967349889192,-0.14669597963316688,0.3199112131432415,0.41378073715900865
1714155260435312000,1.65031201171875,-3.585235118865967,0.7987186312675476,7.99188756942749,0.6601970195770264,-0.04393870383501053,-0.7498061656951904,2.554173707962036,0.32550910115242004,1.286686658859253,0.8189731820240606,-0.14992418855333486,0.32034303572761363,0.4518694817329941
1714155260445301000,1.660301025390625,-3.9229018688201904,3.0471601486206055,7.644058704376221,0.6656036376953125,-0.065836600959301,-0.7433958053588867,2.5300140380859375,0.2175242006778717,1.4713926315307617,0.7962593079808475,-0.15605606522845994,0.3224106119398038,0.48751309057767767
1714155260455291100,1.670291015625,-4.533599853515625,5.351263046264648,8.056264877319336,0.6913263201713562,-0.08888671547174454,-0.7170544266700745,1.727649450302124,0.13280147314071655,1.5179424285888672,0.7655716246890443,-0.1705162135120642,0.33525662950534746,0.521945625370628
1714155260465280000,1.680280029296875,-4.394646167755127,5.2208733558654785,5.003416538238525,0.723628580570221,-0.10441704839468002,-0.6822453737258911,1.2379497289657593,-0.11160166561603546,1.1992131471633911,0.7336952382041887,-0.1911682772490657,0.3497599165221523,0.550285410811999
1714155260475270100,1.690270263671875,-2.5294904708862305,-0.40541553497314453,0.8392438292503357,0.7395378947257996,-0.10133606195449829,-0.6654433012008667,2.6257269382476807,-1.060697078704834,1.4838026762008667,0.7176812273952609,-0.20660167864721418,0.3529788896367058,0.5636092733317664
1714155260485259000,1.700259033203125,-1.8333497047424316,-5.709803581237793,1.417064905166626,0.7154824137687683,-0.09368818998336792,-0.6923202872276306,4.780794143676758,-1.9435890913009644,2.485517978668213,0.7188115213954194,-0.2028806680331927,0.335677370828515,0.5739947774908479
1714155260495248100,1.710248046875,-0.21396504342556,-6.966325283050537,0.2151697278022766,0.6685368418693542,-0.093318872153759,-0.7378008365631104,6.100353240966797,-1.0996285676956177,3.360038995742798,0.7248637559345804,-0.18653635000861166,0.3103284831444999,0.5860656825253658
1714155260505238000,1.720238037109375,2.2811625003814697,-8.345727920532227,-2.2863550186157227,0.6119233965873718,-0.09421998262405396,-0.7852848768234253,3.9452664852142334,0.5918548107147217,3.1728429794311523,0.7401665757181385,-0.16220313162758043,0.28468878515891516,0.5871932360665761
1714155260515227100,1.73022705078125,4.36883544921875,-10.080491065979004,-4.651288986206055,0.5408762097358704,-0.10191358625888824,-0.8349051475524902,1.4981863498687744,0.34638985991477966,2.6139731407165527,0.7650593512031663,-0.12738757549800134,0.25752639302390157,0.5763131524538239
1714155260525217000,1.740217041015625,6.094219207763672,-12.72360897064209,-7.502387046813965,0.44929781556129456,-0.11637686938047409,-0.8857696652412415,0.7916079759597778,-0.6546650528907776,2.3853118419647217,0.7985635374165173,-0.08233887633220227,0.22435569251594373,0.5524319820330967
1714155260535206100,1.7502060546875,9.800914764404297,-16.121273040771484,-10.060248374938965,0.33267223834991455,-0.15404030680656433,-0.9303766489028931,0.20274341106414795,-1.1277896165847778,1.8011653423309326,0.8384638908895199,-0.02133174844985543,0.1853553829487939,0.5120220901304535
1714155260545196000,1.760196044921875,10.511809349060059,-12.33948040008545,-13.084159851074219,0.20777155458927155,-0.22174036502838135,-0.9527130722999573,-0.48482537269592285,-1.3767246007919312,0.9651489853858948,0.8791003732513736,0.051822897578773945,0.14476826821230887,0.451153098357892
1714155260555185200,1.77018505859375,9.73128890991211,-11.603151321411133,-9.310766220092773,0.1311657577753067,-0.2960008978843689,-0.9461389780044556,-2.5373852252960205,-1.1245924234390259,-0.6128361821174622,0.9063355486743547,0.11160629715949248,0.12031015174009971,0.38939103838989764
1714155260565174000,1.780174072265625,8.747039794921875,-9.935787200927734,-7.1654372215271,0.0533120296895504,-0.3763391673564911,-0.9249468445777893,-7.693692684173584,-1.281970739364624,-0.7949780821800232,0.9197464288135915,0.1703615850223111,0.09221448501856622,0.34137935674640524
1714155260575164200,1.7901640625,9.129724502563477,-4.59092903137207,-11.337004661560059,0.023228060454130173,-0.4565194845199585,-0.889410138130188,-11.722537994384766,-1.276253342628479,0.14073771238327026,0.9285814491356896,0.22083410955142435,0.08079126301778856,0.28712610552027895
1714155260585153000,1.800153076171875,4.516382217407227,2.113593339920044,-9.097798347473145,0.06572506576776505,-0.5122045278549194,-0.856344997882843,-14.290853500366211,1.1727575063705444,-2.1339352130889893,0.9344337502803123,0.24952605674961492,0.09779701071498126,0.23453380114840428
1714155260595143200,1.81014306640625,-0.4310096502304077,4.003233909606934,-5.989515781402588,0.13144756853580475,-0.522742509841919,-0.8422955274581909,-12.195305824279785,1.8899757862091064,-3.106633186340332,0.9381802605923986,0.25176302808650025,0.12436884431933182,0.20239909766836117
1714155260605132000,1.820132080078125,-8.663805961608887,3.713362455368042,-4.55107307434082,0.19129465520381927,-0.4794307351112366,-0.8564767837524414,-6.2870588302612305,0.5190426111221313,0.9805918335914612,0.9454189083152951,0.2250348916201675,0.14533032405692906,0.18552992452114603
1714155260615121000,1.830120849609375,-16.542490005493164,3.330127477645874,-1.64523184299469,0.2366129606962204,-0.3533709645271301,-0.9050653576850891,-1.5434366464614868,0.002571403980255127,3.3870599269866943,0.9585613288786122,0.15500567139455526,0.1531031305957636,0.18355625890973337
1714155260625111000,1.840111083984375,-9.852169036865234,1.8048313856124878,3.779040813446045,0.25601860880851746,-0.23484383523464203,-0.9377114772796631,0.5089960694313049,0.3411060571670532,2.288480520248413,0.9635582301780419,0.09021949071431357,0.1516729801636626,0.20102582101242827
1714155260635100000,1.850099853515625,-0.5134997367858887,-0.2893853187561035,5.429103374481201,0.2504981458187103,-0.18960359692573547,-0.9493688344955444,0.9442955851554871,2.0411813259124756,-0.07472479343414307,0.9606661251925983,0.06419033944245851,0.1455856826829264,0.2276069303467279
1714155260645090000,1.860090087890625,11.53692626953125,-3.974532127380371,1.2755711078643799,0.22050946950912476,-0.2534492015838623,-0.9418805837631226,0.10106952488422394,3.467331647872925,-0.39112716913223267,0.9552114506394352,0.0972039051158345,0.1400396471996134,0.24189091362809922
1714155260655079000,1.870078857421875,15.426931381225586,-3.387063980102539,-3.179456949234009,0.18936724960803986,-0.3806855082511902,-0.9051069021224976,-1.0989435911178589,2.74686598777771,-0.36404281854629517,0.9498458529461398,0.16749846961285528,0.1392508483770092,0.2243794765577593
1714155260665068000,1.880068115234375,5.381796360015869,3.270350933074951,-5.141439437866211,0.20906919240951538,-0.47458213567733765,-0.8550215363502502,-1.8262566328048706,-0.5595365166664124,1.0841933488845825,0.9429513932289948,0.21916923943819128,0.15637795009658406,0.1958404782694516
1714155260675058000,1.890057861328125,-5.561227798461914,-0.6692913770675659,-2.5030717849731445,0.24500210583209991,-0.4561403691768646,-0.8555173277854919,-1.419989824295044,-4.460165023803711,2.3894529342651367,0.9464888808690526,0.2090852082454099,0.16889261237300895,0.1786540856821045
1714155260685046800,1.900046875,-6.551159858703613,-1.4519251585006714,-0.7854909300804138,0.23666824400424957,-0.3998989462852478,-0.8854766488075256,-0.9976850748062134,-6.805026531219482,1.7616974115371704,0.955071547504887,0.18061639454110764,0.15696936123218666,0.17486145847820617
1714155260695037000,1.910036865234375,-6.4587626457214355,-0.05334429815411568,-0.6297687292098999,0.2336491197347641,-0.3355751931667328,-0.9125773310661316,0.07654684782028198,-2.982952117919922,1.4332683086395264,0.9618936897505797,0.14724477161697574,0.14842614484460645,0.17620737280464177
1714155260705025800,1.92002587890625,-0.6245520710945129,0.2937851548194885,0.2839471399784088,0.23575273156166077,-0.3049534857273102,-0.9227263927459717,-0.5300947427749634,0.8058080077171326,-0.20744627714157104,0.9641827195252073,0.13108800152831296,0.14646749503080717,0.17808697282560132
1714155260715016000,1.930015869140625,2.1352906227111816,0.24615666270256042,0.8247174024581909,0.23744027316570282,-0.31245002150535583,-0.9197810292243958,-0.14814580976963043,2.2093310356140137,-0.32764023542404175,0.9630522834760025,0.1344699085447324,0.1484161117023521,0.18005768368508662
1714155260725004800,1.9400048828125,4.513840198516846,-0.18988724052906036,1.3294705152511597,0.2339009940624237,-0.34701499342918396,-0.9082240462303162,0.4375467896461487,2.8133692741394043,-0.7518253922462463,0.9594793177494685,0.15204486518044225,0.15089846318750005,0.1830608423658326
1714155260734994000,1.949993896484375,3.833949089050293,-0.08324521034955978,-0.4775204658508301,0.22854699194431305,-0.3857634961605072,-0.893841564655304,0.36146461963653564,1.848059058189392,-0.30719292163848877,0.9559252374247484,0.17275113101347706,0.15243443528452216,0.1820099558953417
1714155260744983300,1.9599833984375,0.575080394744873,0.5072298049926758,0.025458648800849915,0.232944056391716,-0.4054320156574249,-0.8839467763900757,-0.2852206528186798,0.053411781787872314,0.18915313482284546,0.9539934037275855,0.1832291142334434,0.15637676589368416,0.17852170588357186
1714155260754972000,1.969971923828125,-2.1336309909820557,0.33935585618019104,0.424167662858963,0.23567260801792145,-0.3980237543582916,-0.8865864276885986,-0.7469640970230103,-1.8209397792816162,0.1319783329963684,0.9541829778042035,0.17867570473294916,0.15742227770287587,0.18118499465997812
1714155260764962300,1.97996240234375,-2.2907259464263916,0.2974123954772949,0.1369362473487854,0.23743408918380737,-0.3776163160800934,-0.8950033187866211,-0.4907452464103699,-2.3099141120910645,0.32131868600845337,0.955720079582238,0.16730848320912867,0.15654460782469895,0.18466355507760646
1714155260774951000,1.989950927734375,-1.176431655883789,0.1287567913532257,-0.10320152342319489,0.23943272233009338,-0.3620493412017822,-0.9008841514587402,-0.3765634298324585,-1.0269124507904053,0.21861791610717773,0.9569488966205892,0.158803556516907,0.15601074724420907,0.18625498879721297
1714155260784940000,1.99993994140625,-0.17096762359142303,-0.11020571738481522,-0.39288294315338135,0.24040630459785461,-0.3554874062538147,-0.9032350182533264,-0.18301798403263092,0.21646460890769958,0.041082918643951416,0.9577014797046453,0.15544361247271332,0.1556270442835097,0.1855405769309264
1714155260794930000,2.009929931640625,0.2872028946876526,-0.2984568476676941,-0.11148881167173386,0.23970814049243927,-0.3557482957839966,-0.9033178687095642,0.02309402823448181,0.6594134569168091,-0.02690368890762329,0.9580408886182727,0.15590717106762378,0.15502912375705197,0.18389257788313185
1714155260804919000,2.0199189453125,0.2187986671924591,-0.4212679862976074,0.16531361639499664,0.23603199422359467,-0.3582499623298645,-0.9032972455024719,0.12641005218029022,0.562061607837677,-0.15197008848190308,0.9580865620221992,0.15756479904406867,0.1533777075091006,0.18362684483741026
1714155260814909000,2.029908935546875,-0.04114395007491112,-0.002563409274443984,0.268001914024353,0.23321154713630676,-0.35966992378234863,-0.9034655094146729,0.09811784327030182,0.24001049995422363,-0.13603949546813965,0.9579830966545747,0.15842420955290118,0.15221373481713113,0.18439361004765686
1714155260824898000,2.03989794921875,-0.3168758153915405,0.292252779006958,0.36038124561309814,0.233663409948349,-0.3586665987968445,-0.90374755859375,-0.114644855260849,-0.028479397296905518,-0.10285943746566772,0.9577127872564771,0.15758293862297199,0.15262318141259967,0.18617158294868552
1714155260834888000,2.049887939453125,-0.36744338274002075,0.25874063372612,0.37026262283325195,0.23488201200962067,-0.3564113974571228,-0.9043236970901489,-0.20827065408229828,-0.1019321084022522,-0.11264407634735107,0.9574181511969995,0.15594609882007826,0.15335892711309712,0.18844727502700143
1714155260844877000,2.059876953125,-0.35099005699157715,0.2611481249332428,0.2774530053138733,0.23606140911579132,-0.35381367802619934,-0.9050363898277283,-0.13263732194900513,-0.13094279170036316,-0.10065507888793945,0.9572028902954244,0.15417426760118608,0.1539873099593048,0.19047531846619115
1714155260854866000,2.069865966796875,-0.18173712491989136,0.2821199893951416,0.26659607887268066,0.2376222312450409,-0.3519960939884186,-0.9053366780281067,-0.0723695158958435,-0.12459692358970642,-0.12377709150314331,0.9569467042559063,0.15282468798511514,0.1548427902844887,0.19214948090545492
1714155260864856000,2.07985595703125,-0.06048861891031265,0.272675096988678,0.29817086458206177,0.23916031420230865,-0.351613849401474,-0.9050801396369934,-0.07294629514217377,-0.078958660364151,-0.11637371778488159,0.956545969229832,0.15221659942215016,0.15585265056311082,0.19380324568074248
1714155260874845000,2.089844970703125,-0.020690342411398888,0.27188146114349365,0.2868542969226837,0.24058474600315094,-0.3519405424594879,-0.904575526714325,-0.05796752870082855,-0.07480201125144958,-0.09182339906692505,0.9560805971724056,0.15198299108862187,0.15688664364858593,0.1954422614870977
1714155260884835000,2.0998349609375,0.030786801129579544,0.30946823954582214,0.32158616185188293,0.24209877848625183,-0.35272088646888733,-0.9038673639297485,-0.030474618077278137,-0.10070928931236267,-0.10629498958587646,0.9555552793530531,0.15196806786814102,0.15802543684110648,0.1970983222677169
1714155260894824000,2.109823974609375,0.08633794635534286,0.34082138538360596,0.36385905742645264,0.2438448667526245,-0.3540973663330078,-0.9028592109680176,-0.03815634548664093,-0.0768108069896698,-0.11259794235229492,0.9549078824749083,0.1522014199647625,0.15938987973134233,0.19894834368941966
1714155260904814000,2.11981396484375,0.03735623136162758,0.33857473731040955,0.35319045186042786,0.24562133848667145,-0.35559484362602234,-0.9017884731292725,-0.06404174864292145,-0.04005029797554016,-0.08127421140670776,0.9542259431370365,0.1524779139774278,0.1607987435975092,0.200866216934521
1714155260914803000,2.129802978515625,-0.006104156840592623,0.3849502205848694,0.3624308407306671,0.24758067727088928,-0.3565625548362732,-0.9008700847625732,-0.07674327492713928,-0.07913684844970703,-0.07166403532028198,0.9535715566220349,0.15245301288540714,0.16224372707786364,0.20282094031926562
1714155260924792000,2.1397919921875,-0.008744307793676853,0.4808136224746704,0.39690476655960083,0.2501315176486969,-0.35736802220344543,-0.8998457193374634,-0.1044558584690094,-0.11479994654655457,-0.07140666246414185,0.9528433636717781,0.152247339362249,0.16400574822547884,0.20496929819989673
1714155260934782000,2.149781982421875,0.08754681050777435,0.4690975844860077,0.40124520659446716,0.2530110478401184,-0.3587150573730469,-0.8985037207603455,-0.13707473874092102,-0.09148028492927551,-0.03576141595840454,0.9520045764811391,0.15226208066753785,0.16602531851075447,0.20721735516487494
1714155260944771000,2.15977099609375,0.16589167714118958,0.42588087916374207,0.38857534527778625,0.2555672526359558,-0.36084142327308655,-0.8969274759292603,-0.11509481072425842,-0.07107388973236084,0.019730210304260254,0.951129758262496,0.15272646340483792,0.1679610056025193,0.2093225326373333
1714155260954761000,2.169760986328125,0.28129124641418457,0.43134570121765137,0.42192184925079346,0.25794562697410583,-0.3638584613800049,-0.8950257301330566,-0.08353763818740845,-0.06590530276298523,0.03966379165649414,0.9501793564912839,0.15367184539321602,0.1699179283297754,0.2113574488637881
1714155260964750000,2.17975,0.3652983605861664,0.4442457854747772,0.4769989550113678,0.26020389795303345,-0.36792486906051636,-0.8927066922187805,-0.10540345311164856,-0.03982052206993103,0.06012612581253052,0.9490798383739825,0.1551351364102998,0.1719876432891526,0.21354325405771651
1714155260974739200,2.1897392578125,0.39806029200553894,0.43585681915283203,0.534787654876709,0.2622743546962738,-0.37263017892837524,-0.8901454210281372,-0.1360231339931488,-0.002308785915374756,0.07825577259063721,0.947858721532142,0.15689875264241027,0.17409787340109614,0.21595463621162264
1714155260984729000,2.19972900390625,0.38725847005844116,0.3993432819843292,0.6052513122558594,0.26382988691329956,-0.3776848018169403,-0.8875516653060913,-0.13629689812660217,0.030165880918502808,0.09685647487640381,0.9465639718830499,0.15884377666564253,0.17604779570979578,0.2186145419840349
1714155260994718000,2.209718017578125,0.31198474764823914,0.4465022683143616,0.711682140827179,0.2650377154350281,-0.38250938057899475,-0.8851222991943359,-0.1417771875858307,0.05784812569618225,0.11507230997085571,0.9451906185024866,0.16061063325691222,0.1778849651099056,0.22175583010110267
1714155261004708000,2.2197080078125,0.2948460280895233,0.47979098558425903,0.7917633056640625,0.26628199219703674,-0.38713017106056213,-0.8827366828918457,-0.17378321290016174,0.08677619695663452,0.12851005792617798,0.9436945496344484,0.1621631572494452,0.17981867394388557,0.22540819377851534
1714155261014697000,2.229697021484375,0.26712945103645325,0.48361048102378845,0.8673858642578125,0.26725512742996216,-0.3918731212615967,-0.8803465962409973,-0.19527944922447205,0.05918577313423157,0.12038266658782959,0.9420845274489151,0.1637221275978688,0.181718913652749,0.2294559113429575
1714155261024687000,2.23968701171875,0.25889351963996887,0.5078838467597961,0.9041178226470947,0.26811718940734863,-0.3964602053165436,-0.8780275583267212,-0.18826791644096375,0.02979150414466858,0.10599392652511597,0.9403988287844447,0.16514362337032593,0.18361316032078576,0.23380260315050944
1714155261034676000,2.249676025390625,0.36460795998573303,0.5283622741699219,0.9718390703201294,0.2689317464828491,-0.4016658067703247,-0.8754086494445801,-0.18871626257896423,0.04827225208282471,0.09809541702270508,0.9385609684436118,0.1668381821683588,0.18563593948696333,0.23834337877833417
1714155261044665000,2.2596650390625,0.49733966588974,0.5282179117202759,1.0736098289489746,0.26941487193107605,-0.4081619381904602,-0.8722496032714844,-0.21016499400138855,0.0950515866279602,0.08988577127456665,0.9364815004612961,0.169168177246007,0.18776930392138974,0.24316060572614273
1714155261054655000,2.269655029296875,0.603084146976471,0.518200159072876,1.1803615093231201,0.2693159878253937,-0.4160293638706207,-0.8685553669929504,-0.22807148098945618,0.14283600449562073,0.09612500667572021,0.9341282763514307,0.17218539796956558,0.18993289032679686,0.24835838876273753
1714155261064644000,2.27964404296875,0.6124184727668762,0.5256322622299194,1.2665716409683228,0.26869481801986694,-0.4246091842651367,-0.8645867109298706,-0.25014013051986694,0.17616558074951172,0.1203545331954956,0.931566811191625,0.17554778875564772,0.19206671461295424,0.2539226598145916
1714155261074634000,2.289634033203125,0.5550222992897034,0.561019778251648,1.3362293243408203,0.26775914430618286,-0.4331589639186859,-0.8606266975402832,-0.28751927614212036,0.1849595308303833,0.13961845636367798,0.9288569911075921,0.1788415093163771,0.19417095820451355,0.2598807914901916
1714155261084623000,2.299623046875,0.4457453191280365,0.6239708065986633,1.4008140563964844,0.2668665945529938,-0.4411461353302002,-0.8568385243415833,-0.3290919363498688,0.1513054370880127,0.13303792476654053,0.9260261998292514,0.18173728868422845,0.19634735137371714,0.2662606415361679
1714155261094612200,2.3096123046875,0.2553085386753082,0.6710986495018005,1.4353928565979004,0.2661021947860718,-0.44796645641326904,-0.8535313010215759,-0.3601268529891968,0.09007155895233154,0.14312785863876343,0.923151774628716,0.1839093288410828,0.1985238220907183,0.2730503911954137
1714155261104602000,2.31960205078125,0.04079464077949524,0.7199726700782776,1.4572774171829224,0.26552051305770874,-0.45303213596343994,-0.8510350584983826,-0.36981430649757385,0.04408133029937744,0.17577266693115234,0.9203282153329609,0.18505259359723353,0.2005941191867923,0.2802023718274968
1714155261114591200,2.32959130859375,-0.05570793151855469,0.741148829460144,1.4844858646392822,0.2650788426399231,-0.4568066895008087,-0.8491530418395996,-0.3707459270954132,0.034580737352371216,0.1944136619567871,0.9175171538943441,0.1854252825809921,0.20258566292904095,0.28764361025427554
1714155261124581000,2.3395810546875,-0.07216024398803711,0.7159169912338257,1.5288039445877075,0.2643830478191376,-0.4602307677268982,-0.8475194573402405,-0.3676697909832001,0.05041024088859558,0.17840629816055298,0.9146415009931487,0.1855888530888257,0.2044432746339694,0.2952805381508085
1714155261134570200,2.3495703125,-0.06345224380493164,0.6651791930198669,1.5936939716339111,0.26302585005760193,-0.46374115347862244,-0.8460269570350647,-0.35752350091934204,0.08140167593955994,0.1455112099647522,0.9116713639310434,0.18583514507535334,0.20603842392496444,0.30309877529402035
1714155261144560000,2.35956005859375,-0.05164287984371185,0.6384581327438354,1.6532073020935059,0.26097339391708374,-0.46751195192337036,-0.8445859551429749,-0.35229724645614624,0.10186558961868286,0.12000715732574463,0.9085596674716971,0.1862539790516085,0.20740412275771797,0.3111467673808801
1714155261154549200,2.36954931640625,-0.06642022728919983,0.620633065700531,1.6702587604522705,0.25848349928855896,-0.47136253118515015,-0.8432103395462036,-0.3565669655799866,0.11099573969841003,0.11089527606964111,0.9053374911879197,0.18674027099514937,0.20862144625242823,0.3193262492695811
1714155261164538000,2.3795380859375,-0.10503105819225311,0.5982265472412109,1.6937655210494995,0.2556525766849518,-0.4749375581741333,-0.8420665264129639,-0.3679267466068268,0.1239396333694458,0.13271600008010864,0.9020679726651724,0.1871159560560132,0.20965291535506436,0.32757700840859383
1714155261174528000,2.389528076171875,-0.12634247541427612,0.5926765203475952,1.7503310441970825,0.2524651288986206,-0.4783201515674591,-0.8411130905151367,-0.3771904706954956,0.1322965919971466,0.16647624969482422,0.8987067631148928,0.18741173189714752,0.21052386832792425,0.33598036162760575
1714155261184517000,2.39951708984375,-0.0999688133597374,0.56317538022995,1.824389100074768,0.24877767264842987,-0.48182862997055054,-0.8402087688446045,-0.3746779263019562,0.12944212555885315,0.17921334505081177,0.8951640033129251,0.18779049234089845,0.21125893144492877,0.34465297594722444
1714155261194507000,2.409507080078125,-0.09597300738096237,0.5210105776786804,1.8805853128433228,0.24437643587589264,-0.48556873202323914,-0.8393468260765076,-0.35451436042785645,0.11015674471855164,0.17633724212646484,0.8914566295902716,0.18836623866112337,0.21176575790493665,0.3535228610655833
1714155261204496100,2.41949609375,-0.07504109293222427,0.44315892457962036,1.921520471572876,0.23919476568698883,-0.48942792415618896,-0.8385977149009705,-0.31925761699676514,0.09637677669525146,0.18124914169311523,0.8876252260004142,0.1891201133946905,0.21197809375213908,0.3625194460019162
1714155261214486000,2.429486083984375,-0.03917523846030235,0.3068934977054596,1.9429045915603638,0.23283885419368744,-0.493517130613327,-0.8379898071289062,-0.27476999163627625,0.10511988401412964,0.19670867919921875,0.8837305728131635,0.19022719629427973,0.21170430935243847,0.3715038926434937
1714155261224475100,2.43947509765625,-0.02761749178171158,0.14277434349060059,1.9006080627441406,0.22516538202762604,-0.49764400720596313,-0.8376461267471313,-0.22977352142333984,0.11522820591926575,0.20411646366119385,0.8799105854278795,0.1916941105152664,0.21078499086629215,0.38023732816746775
1714155261234464300,2.44946435546875,-0.06799979507923126,0.05229877308011055,1.8458532094955444,0.21651165187358856,-0.5014262199401855,-0.8376720547676086,-0.20845498144626617,0.12760114669799805,0.22092705965042114,0.8762792341413604,0.19332279476364161,0.20926126678282073,0.38854951605705934
1714155261244454100,2.4594541015625,-0.09636011719703674,0.05524023622274399,1.7840114831924438,0.20782198011875153,-0.5045806765556335,-0.837978720664978,-0.22301970422267914,0.12314146757125854,0.23794209957122803,0.8727233260073294,0.1947376059131578,0.20757624645571188,0.3966652699624885
1714155261254443300,2.469443359375,-0.15454193949699402,0.059003546833992004,1.6936781406402588,0.1995161771774292,-0.5071058869361877,-0.8384730219841003,-0.2585524022579193,0.08201122283935547,0.24057263135910034,0.8693151849340159,0.19589808016491533,0.20588211337061021,0.40438559872627694
1714155261264433200,2.47943310546875,-0.33162158727645874,0.07421072572469711,1.694133996963501,0.1915612816810608,-0.5083936452865601,-0.8395475745201111,-0.3000054955482483,0.01809823513031006,0.24193716049194336,0.866036255072163,0.19644042409073156,0.20405234212860993,0.4120134046141096
1714155261274422300,2.48942236328125,-0.5407942533493042,0.0301631111651659,1.6928670406341553,0.18339930474758148,-0.5079042911529541,-0.8416638374328613,-0.2890664041042328,-0.038177311420440674,0.26108217239379883,0.862887267453829,0.19616365069549616,0.20171246097222412,0.4198303832026929
1714155261284412200,2.499412109375,-0.7596305012702942,-0.03214287385344505,1.609866738319397,0.1750371754169464,-0.5053742527961731,-0.8449608087539673,-0.251025915145874,-0.06844770908355713,0.23100823163986206,0.8600237231140223,0.19501146505911127,0.1987212136778472,0.42759728555854015
1714155261294401300,2.5094013671875,-0.9565734267234802,-0.1423569917678833,1.4822442531585693,0.16653214395046234,-0.5007205605506897,-0.8494386076927185,-0.22234877943992615,-0.0638851523399353,0.21499347686767578,0.8576032394447993,0.19301856245718957,0.19499878869371956,0.4350126879519858
1714155261304390100,2.51939013671875,-1.0848642587661743,-0.2623981833457947,1.319028377532959,0.1578277051448822,-0.49428436160087585,-0.8548528552055359,-0.1954711228609085,-0.055291444063186646,0.2106572985649109,0.8557084599635143,0.19043810399548786,0.19054372201530617,0.44180246128860196
1714155261314380300,2.52938037109375,-1.1846802234649658,-0.3160174787044525,1.1896443367004395,0.14918412268161774,-0.48645222187042236,-0.8608765006065369,-0.18748366832733154,-0.06036174297332764,0.20163577795028687,0.8542798385317052,0.18740730317322352,0.18558088304461812,0.4479331727638147
1714155261324369200,2.539369140625,-1.255130410194397,-0.32360348105430603,1.08920419216156,0.14091742038726807,-0.47755324840545654,-0.8672284483909607,-0.20129644870758057,-0.055283695459365845,0.19597911834716797,0.8531398055649044,0.18396108092883087,0.18039980767750372,0.45361521442392166
1714155261334359300,2.549359375,-1.2132618427276611,-0.2808331251144409,0.9972202181816101,0.13334792852401733,-0.46813666820526123,-0.8735367059707642,-0.21807998418807983,-0.03554067015647888,0.17181557416915894,0.8521660385031313,0.1802676327871759,0.1753146792030643,0.45889130583567955
1714155261344348200,2.55934814453125,-1.0322422981262207,-0.2517460584640503,0.9285711050033569,0.12658154964447021,-0.4595310688018799,-0.8790951371192932,-0.23182140290737152,-0.0012232959270477295,0.129766583442688,0.8511837136106863,0.17691887250662172,0.1707399923165146,0.4637172248096358
1714155261354338000,2.569338134765625,-0.8179560303688049,-0.2655785381793976,0.8686505556106567,0.12021607905626297,-0.45249125361442566,-0.883628785610199,-0.23050658404827118,0.03154703974723816,0.06888574361801147,0.8501167155007643,0.17434295512773035,0.16670379728807017,0.46809832416243924
1714155261364327200,2.5793271484375,-0.6758071184158325,-0.36214450001716614,0.7475624680519104,0.11381393671035767,-0.4469200074672699,-0.8873043060302734,-0.20167404413223267,0.02162700891494751,0.020895004272460938,0.8491004422823929,0.1726124769492273,0.16295026580079386,0.47189041306718066
1714155261374316000,2.58931591796875,-0.7109725475311279,-0.4765818417072296,0.5784381628036499,0.1071421205997467,-0.44156548380851746,-0.8908088803291321,-0.1642404943704605,-0.01563364267349243,0.009339213371276855,0.8484564426174463,0.17123236648133316,0.15898120244761482,0.4748960064712086
1714155261384306200,2.59930615234375,-0.8909658193588257,-0.568795919418335,0.4127900004386902,0.10025176405906677,-0.43497735261917114,-0.8948431611061096,-0.13823089003562927,-0.03580206632614136,0.05261904001235962,0.8483854035072079,0.16950965035143967,0.1544179393881266,0.47714122362628286
1714155261394295000,2.609294921875,-1.078044056892395,-0.5972582101821899,0.350862979888916,0.09341077506542206,-0.426455020904541,-0.8996724486351013,-0.14104869961738586,-0.033063411712646484,0.0735006332397461,0.8487583160630274,0.1669830089184134,0.14926634692989166,0.47900481660878846
1714155261404285200,2.61928515625,-1.202810287475586,-0.6864320039749146,0.30872491002082825,0.08628404140472412,-0.41646715998649597,-0.9050470590591431,-0.16871200501918793,0.005914181470870972,0.033678650856018066,0.8493648373673689,0.1639083519675473,0.14356368093314414,0.48073158846109143
1714155261414274000,2.629274169921875,-1.3299299478530884,-0.812820553779602,0.2203979790210724,0.07837160676717758,-0.4051685035228729,-0.9108766913414001,-0.20172365009784698,0.015291184186935425,-0.029995501041412354,0.8502856315367324,0.16051451527305782,0.1371012279904083,0.4821333404352611
1714155261424264200,2.63926416015625,-1.4204742908477783,-0.8995871543884277,0.1427634358406067,0.06979695707559586,-0.392731636762619,-0.9170007109642029,-0.19891680777072906,-0.02543550729751587,-0.04450136423110962,0.8515168813295657,0.156857649414818,0.12998204527761398,0.4831350554321109
1714155261434253000,2.649253173828125,-1.5915334224700928,-1.0101038217544556,0.05676810443401337,0.060640495270490646,-0.37900352478027344,-0.9234062433242798,-0.13308921456336975,-0.03980448842048645,-0.039865851402282715,0.8530268825901473,0.15283471121827716,0.12222291676300483,0.48378530020980637
1714155261444242000,2.659241943359375,-1.7384201288223267,-1.1269664764404297,-0.05353277176618576,0.05069674178957939,-0.36350396275520325,-0.9302121996879578,-0.0180886872112751,0.012277156114578247,-0.026239216327667236,0.8549132525133856,0.1482886377024232,0.11359748324367293,0.4839725018119382
1714155261454232000,2.669232177734375,-1.719166874885559,-1.2207039594650269,-0.15474434196949005,0.0401298888027668,-0.3472370207309723,-0.9369183778762817,0.08079603314399719,0.07573738694190979,0.004118144512176514,0.857077810724876,0.14363125271745433,0.10445513401649374,0.48360806590491545
1714155261464221000,2.679220947265625,-1.6525126695632935,-1.2482668161392212,-0.2504642605781555,0.02917393296957016,-0.33133557438850403,-0.9430618286132812,0.14164823293685913,0.08780530095100403,-0.03867340087890625,0.8593800911458299,0.13929616001094494,0.09521380513077017,0.4826973096595578
1714155261474211000,2.689211181640625,-1.604289174079895,-1.2121785879135132,-0.31607258319854736,0.018451975658535957,-0.3159051835536957,-0.948611319065094,0.17376300692558289,0.04777774214744568,-0.108487069606781,0.8617454499236387,0.13514647810707842,0.0861961172656906,0.4813527117911942
1714155261484200000,2.699199951171875,-1.5914793014526367,-1.2033880949020386,-0.33927810192108154,0.008051412180066109,-0.3006977140903473,-0.9536855220794678,0.21544408798217773,-0.00006830692291259766,-0.12149453163146973,0.8640821400225764,0.13101621290272797,0.07740797972795452,0.47979670016930664
1714155261494190000,2.709190185546875,-1.661367654800415,-1.3640280961990356,-0.44703415036201477,-0.0030058519914746284,-0.28524020314216614,-0.9584513306617737,0.32232654094696045,-0.03945156931877136,-0.11956679821014404,0.8665020253964504,0.12693588524042568,0.06827595539100155,0.4779119751213693
1714155261504179000,2.719178955078125,-1.8227778673171997,-1.5911355018615723,-0.6500112414360046,-0.015682697296142578,-0.2685898542404175,-0.9631269574165344,0.46757176518440247,-0.07091823220252991,-0.09641283750534058,0.8693537650631021,0.12273867891942715,0.0580666886935588,0.4751708583384738
1714155261514168000,2.72916796875,-1.9695100784301758,-1.7591663599014282,-0.845811665058136,-0.029966911301016808,-0.2504461705684662,-0.9676666259765625,0.5650316476821899,-0.07954040169715881,-0.0107574462890625,0.8727183819289503,0.1182592050268777,0.04670598534836676,0.47137664498108733
1714155261524158000,2.739157958984375,-1.9761191606521606,-1.798357367515564,-0.965875506401062,-0.04508483037352562,-0.23157009482383728,-0.9717729687690735,0.5887707471847534,-0.06461828947067261,0.08482533693313599,0.8763602082892679,0.11359487163970095,0.034781228833475085,0.4667754743872734
1714155261534147000,2.74914697265625,-1.793112874031067,-1.7238136529922485,-1.0336196422576904,-0.06002531200647354,-0.21365022659301758,-0.9750643968582153,0.5596743822097778,-0.02139618992805481,0.13583099842071533,0.8799891104869617,0.10922304891679081,0.023197769233948624,0.4616831338475479
1714155261544137000,2.759136962890625,-1.514426589012146,-1.6496918201446533,-1.0856125354766846,-0.0743010863661766,-0.1982315182685852,-0.9773349761962891,0.5040191411972046,0.027912884950637817,0.10286903381347656,0.8834547388039335,0.10571266309718427,0.012544109561274268,0.4562622508234806
1714155261554126000,2.7691259765625,-1.3263485431671143,-1.6450499296188354,-1.1303646564483643,-0.08816395699977875,-0.18533241748809814,-0.9787129163742065,0.46008172631263733,0.02392493188381195,0.015211999416351318,0.8867597930152145,0.10313238293665367,0.002691162098095154,0.4505703309657789
1714155261564115000,2.779114990234375,-1.3374806642532349,-1.7503198385238647,-1.1891952753067017,-0.10264437645673752,-0.17355260252952576,-0.9794608950614929,0.4674667716026306,-0.04069608449935913,-0.02452164888381958,0.890000937348138,0.10108460170301223,-0.007173683373553688,0.4445543973369934
1714155261574105000,2.78910498046875,-1.485192894935608,-1.8291163444519043,-1.248780369758606,-0.11819317191839218,-0.16110660135746002,-0.9798341989517212,0.5006394982337952,-0.08826781809329987,-0.014779448509216309,0.8932806301316697,0.09884594754667289,-0.017674411923649005,0.43814011903075567
1714155261584094000,2.799093994140625,-1.557386040687561,-1.8109188079833984,-1.2895561456680298,-0.13410359621047974,-0.1477329432964325,-0.9798934459686279,0.5017336010932922,-0.08886986970901489,0.00746607780456543,0.8965723263540204,0.09611899823652338,-0.028537772836272013,0.4313987646704768
1714155261594084000,2.809083984375,-1.554380178451538,-1.776301383972168,-1.3455091714859009,-0.14978401362895966,-0.13435867428779602,-0.9795470833778381,0.46599191427230835,-0.08417773246765137,-0.019781529903411865,0.8998149890817352,0.09318531866611489,-0.039280419064619945,0.4243897495421767
1714155261604073000,2.819072998046875,-1.4948116540908813,-1.7779533863067627,-1.3544657230377197,-0.1654200404882431,-0.12151781469583511,-0.9787081480026245,0.4100337028503418,-0.07921158522367477,-0.09575474262237549,0.902970456177888,0.09032603173083614,-0.049871190711455904,0.41713122729463753
1714155261614063000,2.82906298828125,-1.3504281044006348,-1.8056010007858276,-1.2861679792404175,-0.18142502009868622,-0.10985515266656876,-0.9772496223449707,0.3523539900779724,-0.04555564373731613,-0.1105799674987793,0.9058430382599243,0.0879453167436539,-0.060339170450500884,0.4099671405530608
1714155261624052000,2.839052001953125,-1.1947609186172485,-1.8118034601211548,-1.2703843116760254,-0.19778332114219666,-0.09985660761594772,-0.9751463532447815,0.33026015758514404,-0.015042103826999664,-0.083737313747406,0.908383845275435,0.08627994537963525,-0.07058749710783188,0.40300346115728153
1714155261634041000,2.849041015625,-1.096703290939331,-1.7626183032989502,-1.3199715614318848,-0.21395158767700195,-0.09144367277622223,-0.9725547432899475,0.32328087091445923,-0.020494818687438965,-0.06933057308197021,0.910777181918872,0.0851662667230725,-0.08043211065446908,0.3959321291526385
1714155261644031000,2.859031005859375,-1.1227666139602661,-1.742974877357483,-1.3564739227294922,-0.229750394821167,-0.08371469378471375,-0.9696425199508667,0.3134754002094269,-0.05291253328323364,-0.0780869722366333,0.9131306319295842,0.0841394098888371,-0.08999612273532982,0.38860480650139556
1714155261654020000,2.86902001953125,-1.216199278831482,-1.7672271728515625,-1.3443522453308105,-0.2456287294626236,-0.07561450451612473,-0.9664103388786316,0.3078235983848572,-0.06838271021842957,-0.12064105272293091,0.9153909881892583,0.08280811679102328,-0.09968770125542384,0.3811358041924489
1714155261664010000,2.879010009765625,-1.262568712234497,-1.7686024904251099,-1.316019058227539,-0.2617473006248474,-0.06698615849018097,-0.9628090262413025,0.3050212562084198,-0.04766841232776642,-0.11650615930557251,0.9174788255284216,0.08114301084385937,-0.10959608686637093,0.37368044836321845
1714155261673999000,2.8889990234375,-1.2476073503494263,-1.7654039859771729,-1.3515876531600952,-0.2778629660606384,-0.05848712474107742,-0.9588385820388794,0.2980504035949707,-0.03668196499347687,-0.0925530195236206,0.919428995434269,0.0793917928412526,-0.11948914288419508,0.3661550600058133
1714155261683989000,2.898989013671875,-1.204107642173767,-1.7808791399002075,-1.4257895946502686,-0.2940329909324646,-0.05073115974664688,-0.9544479846954346,0.296871155500412,-0.05380682647228241,-0.07114100456237793,0.9213221691612421,0.07782049279007631,-0.12930576635521124,0.3583147660324172
1714155261693978000,2.90897802734375,-1.2076256275177002,-1.795210599899292,-1.5104261636734009,-0.3103499114513397,-0.043743181973695755,-0.9496154189109802,0.2898726463317871,-0.07095716148614883,-0.056442320346832275,0.9231839232071377,0.07643701884777318,-0.13910308534983856,0.3500557539508123
1714155261703968000,2.918968017578125,-1.2635676860809326,-1.7785160541534424,-1.5382171869277954,-0.32666364312171936,-0.036948323249816895,-0.94441819190979,0.25423023104667664,-0.090355783700943,-0.06804823875427246,0.9250074623191649,0.07493664810860395,-0.14891412264411594,0.3414236125926006
1714155261713957000,2.92895703125,-1.35359525680542,-1.7496857643127441,-1.4595814943313599,-0.34276244044303894,-0.029668888077139854,-0.9389534592628479,0.18455937504768372,-0.11734956502914429,-0.10708224773406982,0.9266700708449598,0.07301171902288879,-0.1587216094292596,0.3328049104777736
1714155261723946000,2.938946044921875,-1.4263551235198975,-1.6995389461517334,-1.3358060121536255,-0.3585458993911743,-0.021531926468014717,-0.9332637190818787,0.11881512403488159,-0.12855353951454163,-0.13515669107437134,0.9280493374071692,0.07053452461251078,-0.1685022497609489,0.3245865031553487
1714155261733936000,2.94893603515625,-1.433694839477539,-1.6190845966339111,-1.3041927814483643,-0.37375470995903015,-0.012995772063732147,-0.9274365305900574,0.08209824562072754,-0.12080857157707214,-0.15139037370681763,0.9292116539307687,0.06767286747659954,-0.17805086803309272,0.3166765294483519
1714155261743924700,2.9589248046875,-1.3450051546096802,-1.5268340110778809,-1.3151317834854126,-0.3881493806838989,-0.00509747676551342,-0.9215824007987976,0.0740472674369812,-0.10195821523666382,-0.15405547618865967,0.9302890297043285,0.06484248804587532,-0.18709426995972425,0.30879361980159215
1714155261753914600,2.96891455078125,-1.185121774673462,-1.4495488405227661,-1.230981469154358,-0.40176787972450256,0.0014721385668963194,-0.9157403707504272,0.08388155698776245,-0.06912963092327118,-0.18579161167144775,0.9312170848651049,0.062446115630657925,-0.19552571575347677,0.3011724509146094
1714155261763903700,2.97890380859375,-1.0082026720046997,-1.34441339969635,-1.123451590538025,-0.414543479681015,0.006701266393065453,-0.9100048542022705,0.09862560033798218,0.0034305453300476074,-0.25327950716018677,0.9319104151538893,0.06057992398062627,-0.20329204619569557,0.2941861053123644
1714155261773893600,2.9888935546875,-0.7984994053840637,-1.2401857376098633,-1.1142690181732178,-0.4263363778591156,0.010192377492785454,-0.9045072793960571,0.08086216449737549,0.0763249397277832,-0.31743180751800537,0.9324675738480777,0.059408025441245474,-0.2102784894269113,0.28767681549685437
1714155261783882500,2.998882568359375,-0.6605349183082581,-1.1500638723373413,-1.1197385787963867,-0.43722590804100037,0.011885365471243858,-0.899273157119751,0.026108384132385254,0.0924084335565567,-0.3602635860443115,0.9329964888324472,0.058928693764751114,-0.21654287914568554,0.28134357177320174
1714155261793871600,3.00887158203125,-0.6212021708488464,-1.076728105545044,-1.1092227697372437,-0.4473508298397064,0.012645350769162178,-0.8942691683769226,-0.018957704305648804,0.07753406465053558,-0.3731868863105774,0.9335094878494545,0.058742215460384425,-0.22229433056822584,0.27512663383247654
1714155261803861500,3.018861572265625,-0.6577271819114685,-1.0246481895446777,-1.1212207078933716,-0.4568479657173157,0.013307024724781513,-0.8894452452659607,-0.02079787850379944,0.06199507415294647,-0.3551378846168518,0.934028749356415,0.058441583650017406,-0.22773218976930465,0.2689107404600735
1714155261813850600,3.0288505859375,-0.7273328900337219,-1.0100712776184082,-1.1176378726959229,-0.4659973680973053,0.014256156049668789,-0.8846712112426758,0.00032970309257507324,0.031703293323516846,-0.32669347524642944,0.9345488466757566,0.05785818541795203,-0.23305967332380656,0.2625910245404645
1714155261823840500,3.038840576171875,-0.8268969058990479,-0.9903631210327148,-1.0980479717254639,-0.4749738872051239,0.01589260809123516,-0.8798563480377197,0.010221719741821289,-0.003975510597229004,-0.3046834468841553,0.9350274482339758,0.05683446657170732,-0.23841489441204522,0.2562259819057581
1714155261833829600,3.04882958984375,-0.9490488767623901,-0.9369348287582397,-1.1045652627944946,-0.48364049196243286,0.018414951860904694,-0.8750730156898499,-0.0014210641384124756,-0.030622007325291634,-0.28178733587265015,0.9355021601196314,0.05522940142122115,-0.2437482659177817,0.2497441355554273
1714155261843819500,3.058819580078125,-1.0507558584213257,-0.8823093771934509,-1.0569767951965332,-0.4917767345905304,0.021862126886844635,-0.8704468011856079,-0.02621331810951233,-0.060375332832336426,-0.2600615620613098,0.9359965703676698,0.05299514905451974,-0.2489339345639583,0.2431743221025875
1714155261853808600,3.06880859375,-1.114842414855957,-0.840529203414917,-0.9346739649772644,-0.49951133131980896,0.02635267935693264,-0.8659064769744873,-0.03781163692474365,-0.08517533540725708,-0.25501948595046997,0.9363888770245972,0.050198571845123885,-0.254021409713557,0.23691595154264744
1714155261863797800,3.0787978515625,-1.07107412815094,-0.775601863861084,-0.8438208103179932,-0.5067604780197144,0.03139766305685043,-0.8615149259567261,-0.03311067819595337,-0.06721004843711853,-0.2740746736526489,0.9366481450714456,0.04713799066220828,-0.25888327173513537,0.2311873727922406
1714155261873787600,3.08878759765625,-0.9431753158569336,-0.6768491864204407,-0.8142405152320862,-0.5132821202278137,0.03586937114596367,-0.8574700355529785,-0.030235886573791504,-0.019771352410316467,-0.31364208459854126,0.9368746414241254,0.04431366481537384,-0.26325138798084186,0.22583369588677155
1714155261883776800,3.09877685546875,-0.7667326331138611,-0.5960099697113037,-0.7807549834251404,-0.5190449953079224,0.039072662591934204,-0.8538534045219421,-0.05045872926712036,0.023137390613555908,-0.36097514629364014,0.9371042064091331,0.04207536148491056,-0.2670261512901756,0.2208223054670153
1714155261893766700,3.1087666015625,-0.6106149554252625,-0.5061461329460144,-0.7318681478500366,-0.5240554213523865,0.04099363833665848,-0.8506970405578613,-0.07785797119140625,0.06133177876472473,-0.38825565576553345,0.9373247527742651,0.04047712008710831,-0.27020934248972767,0.2162657456752446
1714155261903755800,3.118755859375,-0.5170985460281372,-0.41391339898109436,-0.7213353514671326,-0.5282589197158813,0.041938599199056625,-0.8480469584465027,-0.09780913591384888,0.08611315488815308,-0.3898070454597473,0.9375864220538854,0.03933004073220821,-0.27281799911915183,0.21202637484666148
1714155261913745700,3.12874560546875,-0.531660795211792,-0.3770637810230255,-0.7619320750236511,-0.5318538546562195,0.04241504147648811,-0.8457732796669006,-0.10808444023132324,0.0803876668214798,-0.36073923110961914,0.9379245442921498,0.03832605285356186,-0.2750354244451362,0.20780765097375814
1714155261923734800,3.13873486328125,-0.7067216634750366,-0.3640505075454712,-0.8366638422012329,-0.5353012084960938,0.04332752153277397,-0.8435492515563965,-0.10083764791488647,0.046806126832962036,-0.3069939613342285,0.9383540703686635,0.03693154782810093,-0.2772389493028508,0.20314111501008641
1714155261933724700,3.148724609375,-0.8731756210327148,-0.34173721075057983,-0.6994788646697998,-0.5386250019073486,0.04583089426159859,-0.8412981629371643,-0.07097887992858887,-0.021142184734344482,-0.2027234435081482,0.9387982822615604,0.03462856723999706,-0.2795563779699448,0.19825942569875488
1714155261943713800,3.1587138671875,-0.9301396608352661,-0.3595665395259857,-0.5954440236091614,-0.541861891746521,0.0500117689371109,-0.8389782309532166,-0.022835254669189453,-0.0882350504398346,-0.12939035892486572,0.9390673694622477,0.0316287024569363,-0.2819760856034294,0.19401420888839693
1714155261953702700,3.16870263671875,-0.9290874004364014,-0.47592219710350037,-0.5000043511390686,-0.5453635454177856,0.05469687655568123,-0.8364130854606628,0.012480854988098145,-0.04151330888271332,-0.12353259325027466,0.9392262641733795,0.0284193697696766,-0.284580020598644,0.18989617011201448
1714155261963692500,3.178692626953125,-0.6843833327293396,-0.20186692476272583,0.2603902518749237,-0.5489416718482971,0.06051306426525116,-0.8336672782897949,0.0019751787185668945,-0.036694109439849854,-0.08663606643676758,0.9388746841438553,0.025300420813447633,-0.28727380291453597,0.18801038113234425
1714155261973681700,3.188681640625,-0.6186825633049011,0.15834078192710876,0.5892003774642944,-0.5483479499816895,0.06823492795228958,-0.8334617614746094,0.05187278985977173,-0.18841317296028137,-0.058170318603515625,0.9385592721636626,0.021687855999292432,-0.28774773309664825,0.1893074908077712
1714155261983671600,3.198671630859375,-0.46485617756843567,0.17564654350280762,0.47481051087379456,-0.5463947653770447,0.07598527520895004,-0.8340737223625183,0.11112260818481445,-0.16471515595912933,-0.03730994462966919,0.9383580471099346,0.01805667009442552,-0.28746667435978474,0.19110478748600634
1714155261993660700,3.20866064453125,-0.10549987852573395,-0.030707962810993195,0.04767913371324539,-0.5455173850059509,0.07985436916351318,-0.8342865705490112,0.0832829475402832,0.12984713912010193,0.00909125804901123,0.9382316683294003,0.016256120848379185,-0.2873890189405261,0.19200173731594505
1714155262003650600,3.218650634765625,0.08147874474525452,-0.1932995468378067,-0.4203662872314453,-0.5466219782829285,0.07877641171216965,-0.8336657881736755,0.03949624300003052,0.13942426443099976,0.006608903408050537,0.9382488751140796,0.016661315026476275,-0.2879053905783669,0.19110676332753085
1714155262013639700,3.2286396484375,-0.03332933411002159,-0.27819234132766724,-0.6715399622917175,-0.5490812063217163,0.07538160681724548,-0.8323625326156616,-0.041464388370513916,0.04465927183628082,0.001872420310974121,0.9384309585218673,0.017876359879436116,-0.2889622160045149,0.18849015683294912
1714155262023628800,3.23862890625,-0.27210426330566406,-0.3859882950782776,-0.6632654666900635,-0.5523107051849365,0.072877898812294,-0.830446720123291,-0.07195687294006348,-0.009477660059928894,0.02850574254989624,0.9386013280899279,0.018472503021386782,-0.29057772417900646,0.1850701619959696
1714155262033618700,3.24861865234375,-0.49154898524284363,-0.5340983867645264,-0.5716617703437805,-0.5565738677978516,0.07271888107061386,-0.8276095390319824,-0.03160667419433594,-0.020427018404006958,0.032626569271087646,0.9385283705345915,0.01795285149223111,-0.29304085027581495,0.18157434905467978
1714155263741817000,4.956817138671875,0.0573880560696125,-0.012968113645911217,0.034325841814279556,-0.6082209348678589,0.11382097005844116,-0.7855648398399353,0.012472033500671387,-0.005742967128753662,0.021282553672790527,0.9355474631213996,-0.014532108413255085,-0.32711831157839655,0.1324138913163595
1714155263751806000,4.966805908203125,0.03461536392569542,-0.022766415029764175,0.018563391640782356,-0.6082850694656372,0.11345166712999344,-0.7855685353279114,0.016625583171844482,-0.0066706836223602295,0.017914116382598877,0.9355231582812011,-0.014271582812148742,-0.32712694870975534,0.13259206513084026
1714155263761796000,4.976796142578125,0.009398156777024269,-0.028770245611667633,-0.00974141526967287,-0.6084760427474976,0.11329510807991028,-0.7854432463645935,0.01384115219116211,0.000428617000579834,0.01473701000213623,0.9354829467713441,-0.014157718361227645,-0.3272276699285095,0.1326393027997177
1714155263771785000,4.986784912109375,-0.0025887307710945606,-0.02363034524023533,-0.02619335986673832,-0.6087043881416321,0.11324872076511383,-0.7852729558944702,0.0011299848556518555,-0.000059038400650024414,0.012735724449157715,0.935446073594786,-0.014136226663890167,-0.32735865268846487,0.13257839412110362
1714155263781775000,4.996775146484375,-0.018481411039829254,-0.027694860473275185,-0.02245481312274933,-0.608931303024292,0.11327730864286423,-0.7850929498672485,-0.007676303386688232,-0.005672372877597809,0.008023858070373535,0.9354146918130086,-0.014174073812042026,-0.3274944796264636,0.13246030420771743
1714155263791764000,5.006763916015625,-0.033411357551813126,-0.030166540294885635,-0.007055351044982672,-0.6091613173484802,0.11344309151172638,-0.7848905324935913,-0.0065765380859375,-0.006143301725387573,0.006432890892028809,0.9353743594972364,-0.014276000744588097,-0.3276445152631581,0.13236339294674526
1714155263801754000,5.016754150390625,-0.034376755356788635,-0.026271667331457138,-0.006448550149798393,-0.6093825697898865,0.11364851891994476,-0.7846890091896057,-0.00559234619140625,-0.006302952766418457,0.004888594150543213,0.9353332305717996,-0.014396989123501375,-0.32779293987054714,0.13227336631397685
1714155263811743000,5.026742919921875,-0.021610360592603683,-0.02152644842863083,0.000993120949715376,-0.6095868349075317,0.1138463094830513,-0.7845016717910767,-0.008470356464385986,-0.006668567657470703,0.0014663934707641602,0.9352929085795089,-0.014508083433663999,-0.3279309072708343,0.13220421277448668
1714155263821743600,5.03674365234375,0.004420069977641106,-0.01737990602850914,0.010115113109350204,-0.6097416877746582,0.1139197126030922,-0.7843706607818604,-0.007461071014404297,-0.0037359893321990967,-0.0008008480072021484,0.9445556728744682,-0.06030333289941614,-0.3227664251000424,0
1714155263831732700,5.046732666015625,0.01404127199202776,-0.01093905046582222,0.006173368543386459,-0.6098319888114929,0.11385636776685715,-0.7843097448348999,-0.0069741010665893555,0.0006608366966247559,-0.005668282508850098,0.9445395976722712,-0.06025417497673988,-0.3228228134846954,0.00004872192059968139
1714155263841722600,5.05672265625,0.014785891398787498,-0.01222961861640215,-0.005183747969567776,-0.6099100708961487,0.1137491911649704,-0.7842645049095154,-0.006926476955413818,0.002843230962753296,-0.007956504821777344,0.9445275760182634,-0.06019040233193221,-0.32286971625595284,0.00007154872554626657
1714155263851711700,5.066711669921875,0.01304604858160019,-0.005022838711738586,-0.008437065407633781,-0.6100307703018188,0.1136086955666542,-0.7841910123825073,-0.004455924034118652,-0.004264205694198608,-0.006748318672180176,0.9445080952204419,-0.06012225238121349,-0.32293933795980634,0.000056952542748622825
1714155263861701600,5.07670166015625,0.016444135457277298,-0.0030190760735422373,-0.014460936188697815,-0.6101118326187134,0.11336345225572586,-0.7841634154319763,-0.001170516014099121,-0.007787883281707764,-0.007920324802398682,0.9445007897046009,-0.06000427394907182,-0.3229826281053997,0.00002366482808302539
1714155263871690800,5.086690673828125,0.009077832102775574,-0.00549741368740797,-0.04044593125581741,-0.6102127432823181,0.11304651200771332,-0.7841306328773499,-0.0012680292129516602,-0.007318377494812012,-0.008273482322692871,0.944492087015651,-0.05987618777145384,-0.32303175349630486,-0.00009079948068296817
1714155263881680600,5.0966806640625,0.00005312496796250343,-0.005593820475041866,-0.04952804371714592,-0.6103342175483704,0.11268829554319382,-0.7840877175331116,0.00021147727966308594,-0.008989572525024414,-0.008484303951263428,0.944480731082595,-0.059759882441553225,-0.3230865358499363,-0.00030304527019980876
1714155263891669800,5.106669677734375,-0.006204770877957344,-0.0029602202121168375,-0.04446537420153618,-0.6104494333267212,0.11237982660531998,-0.7840422987937927,0.001852571964263916,-0.00839117169380188,-0.005661070346832275,0.9444685917353188,-0.059673286662002084,-0.32313766888853757,-0.0005249545977341619
1714155263901659600,5.11665966796875,-0.0029567270539700985,0.0030337562784552574,-0.035513490438461304,-0.6105087399482727,0.11216389387845993,-0.7840270400047302,0.00398707389831543,-0.008556723594665527,-0.0030518174171447754,0.9444644324302378,-0.059628791271521264,-0.3231576942980394,-0.0007282115400174538
1714155263911648800,5.126648681640625,-0.0031647197902202606,-0.00026936247013509274,-0.022167591378092766,-0.6105363965034485,0.11201256513595581,-0.784027099609375,0.007493793964385986,-0.00782555341720581,-0.0051727294921875,0.9444643581575582,-0.0595934802185453,-0.3231641299450384,-0.0008591118572580658
1714155263921638700,5.136638671875,-0.010841121897101402,0.0011034969938918948,-0.012473884969949722,-0.6105473637580872,0.11199457943439484,-0.7840211987495422,0.008420228958129883,-0.008707821369171143,-0.008810222148895264,0.9444627270410346,-0.05961206119372811,-0.32316530480884237,-0.0009409430044298728
1714155263931627800,5.146627685546875,-0.019630882889032364,0.007944624871015549,-0.005130485165864229,-0.6105169653892517,0.11203973740339279,-0.7840383648872375,0.008161008358001709,-0.011224925518035889,-0.010410487651824951,0.9444671370746347,-0.059659014692875684,-0.3231433641576824,-0.0010091821447409943
1714155263941617700,5.15661767578125,-0.01656111143529415,0.008885519579052925,0.01673187129199505,-0.610434353351593,0.11216126382350922,-0.7840852737426758,0.007132351398468018,-0.015054352581501007,-0.008883416652679443,0.9444795237193346,-0.059734493680613704,-0.3230930942963223,-0.0010441997395705949
1714155263951606800,5.166606689453125,0.02533840201795101,0.02961130440235138,0.007002543658018112,-0.6102206707000732,0.11214271932840347,-0.784254252910614,0.005652189254760742,-0.012533336877822876,-0.011171162128448486,0.9445242891606211,-0.059699235960364916,-0.32296884997616554,-0.0009784799546561085
1714155263961595600,5.176595703125,0.025928929448127747,0.02738836407661438,0.002131089800968766,-0.6099705696105957,0.11186900734901428,-0.7844878435134888,-0.0003046989440917969,0.0003288686275482178,-0.014614880084991455,0.9445861839116381,-0.059535537613467165,-0.3228181902321321,-0.000935328263566293
1714155263971585800,5.186585693359375,0.00364173436537385,0.00392112135887146,-0.004787802696228027,-0.6098299026489258,0.11167977750301361,-0.7846242189407349,0.004528999328613281,-0.000534743070602417,-0.011075794696807861,0.944622378226351,-0.059431448555833655,-0.32273174432673735,-0.0009307655656899394
1714155263981574700,5.19657470703125,-0.008846307173371315,-0.0004179668612778187,0.0066556669771671295,-0.6098144054412842,0.11165593564510345,-0.7846396565437317,0.00794672966003418,-0.00955936312675476,-0.0031411051750183105,0.9446264000987759,-0.05941754451110692,-0.3227223792215026,-0.0009277740217644159
1714155263991564800,5.206564697265625,-0.022809527814388275,-0.0000989201944321394,0.012050964869558811,-0.6097697615623474,0.11178047955036163,-0.7846565842628479,0.005918443202972412,-0.00976020097732544,-0.0029563307762145996,0.9446308579950927,-0.059480040711430704,-0.32269775199828266,-0.0009186421908427
1714155264001553700,5.2165537109375,-0.017651250585913658,0.006679090671241283,0.007630517240613699,-0.6097002625465393,0.11194516718387604,-0.7846871018409729,0.0014696121215820312,-0.005362510681152344,-0.003948092460632324,0.9446389679096548,-0.059564389947473234,-0.3226585188180757,-0.0009119880081822074
1714155264011543800,5.226543701171875,0.000017225276678800583,0.01340090949088335,0.007436372805386782,-0.6095780730247498,0.11195746809244156,-0.7847803235054016,0.0005844831466674805,-0.008335024118423462,-0.005808055400848389,0.944663629465331,-0.059570842175183825,-0.32258511263766104,-0.0009165795355859929
1714155264021532700,5.23653271484375,0.015291360206902027,0.023152073845267296,0.011331911198794842,-0.6093843579292297,0.11180119961500168,-0.7849529981613159,-0.00014322996139526367,-0.0030975937843322754,-0.008839726448059082,0.9447093599126233,-0.05947520184104141,-0.3224689183933728,-0.000887461656528532
1714155264031522800,5.246522705078125,0.012671874836087227,0.020327791571617126,0.017045190557837486,-0.6091651916503906,0.11165805906057358,-0.7851434946060181,-0.0023460984230041504,-0.002542436122894287,-0.008527159690856934,0.9447598532795741,-0.05937456481376546,-0.3223397385423415,-0.0008242124465869805
1714155264041511700,5.25651171875,-0.0006375927478075027,0.008805092424154282,0.016729407012462616,-0.6090031266212463,0.11171360313892365,-0.7852612733840942,-0.0018824934959411621,-0.007862277328968048,-0.004731953144073486,0.9447909948974744,-0.05937374768296447,-0.32224855221836723,-0.0007416064608181672
1714155264051501800,5.266501708984375,-0.008450508117675781,0.004292898811399937,0.0023384832311421633,-0.608916699886322,0.11178295314311981,-0.7853183746337891,0.0004115104675292969,-0.012249894440174103,-0.00008195638656616211,0.9448061337596992,-0.05940001751283905,-0.3221993862675168,-0.0007139191488623742
1714155264061490700,5.27649072265625,-0.01666199415922165,0.009038119576871395,0.009808050468564034,-0.6088414788246155,0.11185145378112793,-0.7853670120239258,0.0016179680824279785,-0.009464986622333527,0.004712164402008057,0.944819030986054,-0.059439884154514316,-0.32215432181158055,-0.0007270068001021812
1714155264071480800,5.286480712890625,-0.00021937023848295212,0.012510881759226322,0.022531036287546158,-0.6087331175804138,0.11193569004535675,-0.7854389548301697,0.000639796257019043,-0.0037050843238830566,0.005562305450439453,0.9448380820091745,-0.05946537823645068,-0.322093744578905,-0.0006746756501249673
1714155264081469700,5.2964697265625,0.3045130670070648,0.0916866585612297,0.03882312402129173,-0.6086077690124512,0.1111413910984993,-0.7856488823890686,-0.003178119659423828,-0.003643214702606201,0.004994034767150879,0.9448938846820227,-0.05893338480668028,-0.3220285788749336,-0.00035741906226116615
1714155264091459800,5.3064599609375,0.11148980259895325,-0.017531439661979675,-0.019066806882619858,-0.6078369617462158,0.10947895795106888,-0.7864786386489868,-0.00710749626159668,0.014666557312011719,0.021860718727111816,0.9451134258518882,-0.05790765139976839,-0.32157019235929796,0.00003165650587100277
1714155264101448700,5.31644873046875,-0.016373679041862488,-0.09891737997531891,0.06274856626987457,-0.6082137227058411,0.10922723263502121,-0.7862223386764526,-0.03097701072692871,0.05932134389877319,0.03687846660614014,0.9450456417160988,-0.057722967749326254,-0.32180256162211396,0.00019508187121292098
1714155264111438800,5.32643896484375,-0.10422390699386597,-0.17873898148536682,0.03280983865261078,-0.6093235611915588,0.1101214587688446,-0.7852375507354736,0.024896681308746338,-0.0252063050866127,0.04034930467605591,0.9447849663785135,-0.05813796644832675,-0.32249215929691255,0.0004119577394288698
1714155264121427700,5.336427734375,-0.07002700120210648,-0.1360037624835968,-0.06352721899747849,-0.610623836517334,0.11068174242973328,-0.7841480374336243,0.05170959234237671,-0.03824825584888458,0.027937650680541992,0.9444967752505405,-0.058519417513627714,-0.3232668555541703,0.0002148952836628082
1714155264131417900,5.34641796875,-0.030605291947722435,-0.08381751924753189,-0.10340059548616409,-0.611552894115448,0.11044244468212128,-0.7834573984146118,0.004039466381072998,-0.009658165276050568,-0.004247009754180908,0.9443138472906699,-0.05855950540940222,-0.32379326731770697,-0.0002388184379794045
1714155264141406700,5.35640673828125,-0.0622083880007267,-0.07238004356622696,-0.1160002052783966,-0.6122832298278809,0.11004897952079773,-0.7829421758651733,-0.02591562271118164,0.022702477872371674,-0.013948023319244385,0.9441770893075567,-0.0585572193359839,-0.3241912342644957,-0.000814016227827008
1714155264151396900,5.36639697265625,-0.10282532125711441,-0.025093218311667442,-0.13050298392772675,-0.6128477454185486,0.10993687808513641,-0.7825161218643188,-0.025503695011138916,0.007937274873256683,-0.008072197437286377,0.9440634313644377,-0.058737339391584764,-0.32448707477545685,-0.0014895347578200435
1714155264161385700,5.3763857421875,-0.15587331354618073,0.05339067056775093,-0.19419421255588531,-0.6129517555236816,0.10996846854686737,-0.7824302315711975,-0.01299428939819336,-0.009916573762893677,-0.002848029136657715,0.9440386214490872,-0.05909663324382894,-0.32448800714030934,-0.002481664716056875
1714155264171375900,5.3863759765625,-0.021772492676973343,0.10402374714612961,-0.1865573227405548,-0.6123471260070801,0.1097651794552803,-0.7829320430755615,-0.025577068328857422,-0.015923619270324707,-0.0018732547760009766,0.9441681003970892,-0.05934515805276863,-0.3240557663088045,-0.0035463510250975383
