time,seconds_elapsed,rotationRateX,rotationRateY,rotationRateZ,gravityX,gravityY,gravityZ,accelerationX,accelerationY,accelerationZ,quaternionW,quaternionX,quaternionY,quaternionZ
1715269846685161200,0.0331611328125,0.01569981873035431,-0.005911493673920631,0.000509058590978384,0.08544057607650757,-0.15803274512290955,-0.9837304353713989,-0.0020970404148101807,0.005612611770629883,-0.0036810636520385742,0.995924387022328,0.0793397306324706,0.042895113452725994,5.551115123125783e-17
1715269846695157800,0.04315771484375,0.00999080017209053,-0.007549869827926159,0.004389284178614616,0.0853612944483757,-0.15817791223526,-0.9837139844894409,-0.005435749888420105,0.00786358118057251,-0.002095341682434082,0.9959202324191694,0.07941294297717197,0.042855487929340366,0
1715269846705147600,0.053147705078125,0.008392903953790665,-0.00830966979265213,0.0049661919474601746,0.08517967164516449,-0.1584099680185318,-0.9836924076080322,-0.00679527223110199,0.0021904855966567993,0.0022623538970947266,0.9959147574713119,0.07952916700296558,0.042765875437888956,0.000016712677015695565
1715269846715137800,0.0631376953125,0.016866283491253853,-0.01071477122604847,0.004431961104273796,0.08491941541433334,-0.1584024280309677,-0.9837160706520081,-0.00593993067741394,0.0024728924036026,0.006482243537902832,0.995920720552208,0.07952390631231743,0.04263682892304632,0.00004014035346910916
1715269846725127700,0.073127685546875,0.017091533169150352,-0.014645330607891083,0.004342678934335709,0.08464871346950531,-0.1582879275083542,-0.9837578535079956,-0.00522671639919281,0.006722375750541687,0.008339762687683105,0.9959312734036062,0.07946526546778687,0.04250105946877899,0.00004753089607600902
1715269846735117600,0.08311767578125,0.013403056189417839,-0.008581578731536865,0.001901359180919826,0.08443129062652588,-0.15827757120132446,-0.9837782382965088,-0.003086686134338379,0.005308210849761963,0.009687662124633789,0.9959362855629759,0.07945960820810469,0.042391806081885634,0.000049007671217515814
1715269846745107700,0.093107666015625,0.00689114723354578,-0.012754219584167004,0.0015187960816547275,0.08427343517541885,-0.1583757996559143,-0.9837759137153625,-0.0037375614047050476,0.0016527771949768066,0.012874484062194824,0.9959357090679325,0.07950870378753543,0.04231308884966939,0.00005529940804249733
1715269846755096600,0.1030966796875,0.006967313587665558,-0.014345990493893623,0.0023097549565136433,0.08412929624319077,-0.15842674672603607,-0.9837800860404968,-0.0022658929228782654,0.000055789947509765625,0.014480769634246826,0.9959367994446229,0.07953380277167972,0.04224143187191556,0.0000647219111827857
1715269846765086700,0.113086669921875,0.010100309737026691,-0.01588716171681881,0.005522326100617647,0.0839642882347107,-0.15840893983840942,-0.983797013759613,-0.0012006163597106934,0.0028303414583206177,0.011629045009613037,0.995941093428153,0.07952409703237964,0.04215921520588388,0.0000748501567577331
1715269846775076600,0.12307666015625,0.005276792217046022,-0.01186339184641838,0.0037795533426105976,0.0837530568242073,-0.15836232900619507,-0.9838225245475769,-0.000501096248626709,0.0029057860374450684,0.007305800914764404,0.9959474127033132,0.07949998388598932,0.04205330735911676,0.00007993293190045048
1715269846785066500,0.13306640625,0.008177134208381176,-0.008715002797544003,-0.003693875391036272,0.08357422798871994,-0.1584216058254242,-0.9838281869888306,-0.0016497820615768433,0.0033465325832366943,0.0018488168716430664,0.9959489041369287,0.07952964079342321,0.04196344570950059,0.00007964157358392177
1715269846795056600,0.143056640625,0.009896204806864262,-0.00848890095949173,-0.005332518834620714,0.08342146873474121,-0.1584930568933487,-0.98382967710495,-0.004091016948223114,0.0008545070886611938,-0.0017660260200500488,0.9959492643244356,0.07956663574006953,0.04188456709223114,0.000052403588584659655
1715269846805046500,0.153046630859375,0.016564279794692993,-0.005896313115954399,-0.007991950958967209,0.08331187814474106,-0.15852566063404083,-0.9838336706161499,-0.005843013525009155,0.0024435222148895264,-0.005698740482330322,0.9959502787264584,0.0795848438170612,0.041825864310638165,0.000006822034578912728
1715269846815036700,0.16303662109375,0.014293136075139046,-0.005578065291047096,-0.007895544171333313,0.08326414227485657,-0.1586078554391861,-0.9838244915008545,-0.0068786367774009705,0.007988348603248596,-0.006181001663208008,0.995947975819041,0.07962839571933156,0.04179798344842662,-0.0000433639531139951
1715269846825026800,0.17302685546875,0.020411696285009384,-0.006306174211204052,-0.004471984691917896,0.08320371806621552,-0.15877193212509155,-0.9838031530380249,-0.006650365889072418,0.008350789546966553,-0.0030437707901000977,0.9959426323172493,0.07971228520638785,0.041765786443613395,-0.00006938764740460623
1715269846835016700,0.1830166015625,0.026622189208865166,-0.013853039592504501,-0.000009325798600912094,0.08310583233833313,-0.15903900563716888,-0.9837682843208313,-0.00476720929145813,0.011349186301231384,-0.0006982684135437012,0.9959338453776905,0.07984761294344495,0.041715954955589406,-0.00008246855567672906
1715269846845006600,0.193006591796875,0.02072019875049591,-0.011345406994223595,0.00478716054931283,0.08298640698194504,-0.15924258530139923,-0.9837453961372375,-0.004037439823150635,0.016313523054122925,0.0025748014450073242,0.9959280790633895,0.0799503125655804,0.04165616956221879,-0.00008324535941051092
1715269846854996700,0.202996826171875,0.010737338103353977,-0.00885508581995964,0.0024355894420295954,0.08287826925516129,-0.15934760868549347,-0.9837375283241272,-0.0032426416873931885,0.01234443485736847,0.007388651371002197,0.9959261634737805,0.0800031102658646,0.04160210149155175,-0.00008140616014462587
1715269846864986600,0.212986572265625,0.014504378661513329,-0.0050238617695868015,-0.0008375021861866117,0.08279850333929062,-0.15941165387630463,-0.9837338924407959,-0.0002026781439781189,0.0038788169622421265,0.0066983699798583984,0.9959252494250077,0.0800354807606476,0.04156180926134745,-0.00008493887645849574
1715269846874976500,0.2229765625,0.022065093740820885,-0.007247601635754108,-0.0018873203080147505,0.08267705887556076,-0.1595800518989563,-0.9837167859077454,-0.0016223639249801636,0.0027502328157424927,0.004285633563995361,0.9959208808259363,0.0801207671828613,0.041500251743838916,-0.00009437603397088878
1715269846884966700,0.232966552734375,0.021211976185441017,-0.011339015327394009,-0.00007736950647085905,0.08250756561756134,-0.15975400805473328,-0.9837027788162231,-0.0032381564378738403,0.0059606581926345825,0.0038901567459106445,0.9959173654256944,0.08020882799111365,0.04141441451268797,-0.00010533527135903054
1715269846894956500,0.24295654296875,0.013278951868414879,-0.006490997038781643,-0.004140288103371859,0.08233553171157837,-0.1597554087638855,-0.9837169647216797,-0.005187086760997772,0.005992591381072998,0.0054912567138671875,0.9959209194549827,0.0802098015952226,0.04132679319863265,-0.00011901666738711736
1715269846904946700,0.25294677734375,0.005515944678336382,-0.0031138425692915916,0.0004587913863360882,0.08221009373664856,-0.15968257188796997,-0.9837392568588257,-0.00553467869758606,0.0031884461641311646,0.006139218807220459,0.9959265569651066,0.08017298618143065,0.04126318032650821,-0.00012409367353910516
1715269846914936800,0.262936767578125,0.017324134707450867,-0.007425766438245773,0.0028069005347788334,0.08209560066461563,-0.15962322056293488,-0.9837584495544434,-0.004062153398990631,0.0037394315004348755,0.005059719085693359,0.9959314336623808,0.08014257919848992,0.04120591500382726,-0.00011898158450041052
1715269846924926700,0.2729267578125,0.005560365505516529,-0.00737729761749506,-0.0013072838773950934,0.08199777454137802,-0.15950241684913635,-0.9837862253189087,-0.003598123788833618,0.009767904877662659,0.0018068552017211914,0.9959383591858075,0.0800817994969173,0.04115567696088836,-0.0001295126729080609
1715269846934916600,0.28291650390625,0.006395000033080578,-0.000919664278626442,-0.0008694601710885763,0.08194442093372345,-0.1593894362449646,-0.9838089942932129,-0.005772538483142853,0.0057639479637146,0.0018601417541503906,0.9959440682042306,0.08002471519080478,0.04112846753197734,-0.00013191904474652016
1715269846944906800,0.29290673828125,0.022938769310712814,-0.009157620370388031,0.005725258961319923,0.08192075043916702,-0.1594906896352768,-0.9837945699691772,-0.0037194490432739258,0.0012875646352767944,0.002822279930114746,0.9959404266754722,0.08007557058192445,0.04111725663325071,-0.00012533106313056264
1715269846954896600,0.302896728515625,0.022527579218149185,-0.011428231373429298,0.008518914692103863,0.08181244134902954,-0.1597004532814026,-0.9837695360183716,-0.0009408518671989441,0.009416639804840088,0.005131840705871582,0.9959341544924828,0.08018048626823028,0.04106487592218222,-0.00010361510999107315
1715269846964886800,0.31288671875,0.02158401906490326,-0.011260186322033405,0.005462404806166887,0.0816657617688179,-0.1598675549030304,-0.983754575252533,0.0011284351348876953,0.012025147676467896,0.007771909236907959,0.9959303806168025,0.08026373199914105,0.04099322556516587,-0.00008075548858260673
1715269846974876700,0.322876708984375,0.005914246663451195,-0.004033698700368404,0.0034919320605695248,0.08152354508638382,-0.159925177693367,-0.9837570190429688,-0.00011789798736572266,0.0024392306804656982,0.00627899169921875,0.9959310139728614,0.08029196252840974,0.04092306079690913,-0.00006510032021495027
1715269846984866600,0.332866455078125,0.014151829294860363,-0.006131470203399658,0.007177680265158415,0.081402987241745,-0.16000410914421082,-0.9837541580200195,-0.004269808530807495,-0.0036464035511016846,0.005024909973144531,0.9959303153500427,0.08033036619689349,0.04086505925310911,-0.000034156401334139996
1715269846994856700,0.342856689453125,0.028346210718154907,-0.011244473047554493,0.007191795390099287,0.08126556128263474,-0.16015733778476715,-0.9837405681610107,-0.007611393928527832,-0.0023640096187591553,0.0025547146797180176,0.9959269425388488,0.08040637222547153,0.04079855324657375,-0.000005012594495756861
1715269847004846600,0.3528466796875,0.028191961348056793,-0.013939326629042625,0.002111349254846573,0.08110256493091583,-0.16030274331569672,-0.9837303757667542,-0.007265277206897736,0.00393068790435791,-0.0013770461082458496,0.9959243709558052,0.08047896096608599,0.04071805751408759,0.000010234851809620693
1715269847014836700,0.362836669921875,0.018562238663434982,-0.008390364237129688,0.004228828940540552,0.08091402053833008,-0.16043901443481445,-0.9837236404418945,-0.007839679718017578,0.004753589630126953,-0.0009107589721679688,0.9959226938763179,0.08054699623081649,0.04062448042675599,0.00002272061378888468
1715269847024827000,0.372826904296875,0.03357522189617157,-0.011207722127437592,0.003230742644518614,0.08078060299158096,-0.16068638861179352,-0.9836942553520203,-0.009308427572250366,-0.0017129182815551758,-0.00022298097610473633,0.995915266030821,0.08067102460423861,0.04055933203285724,0.000041618033238655094
1715269847034816800,0.382816650390625,0.030047332867980003,-0.013412553817033768,-0.0018953097751364112,0.08066961169242859,-0.1608751118183136,-0.9836724996566772,-0.007122248411178589,-0.0034467875957489014,-0.0009618997573852539,0.995909809727341,0.08076636331398923,0.040503554968194036,0.00003816037947307338
1715269847044806700,0.392806640625,0.020954767242074013,-0.018466966226696968,-0.002760637551546097,0.08054784685373306,-0.16098305583000183,-0.9836648106575012,-0.006252802908420563,0.001009911298751831,0.0013039708137512207,0.9959078745810409,0.0808218693341864,0.04044019388145748,0.000009708107315820058
1715269847054796800,0.402796875,0.008719407021999359,-0.016997700557112694,-0.01662132516503334,0.08042580634355545,-0.16108249127864838,-0.9836585521697998,-0.0029416754841804504,-0.00574183464050293,0.0025336742401123047,0.995906297843209,0.08087437841190602,0.040374064144514485,-0.00005091747227564669
1715269847064786700,0.41278662109375,-0.004259294830262661,-0.017057089135050774,-0.02401772327721119,0.08024972677230835,-0.16111283004283905,-0.9836679697036743,-0.0011786818504333496,-0.01497359573841095,0.0014444589614868164,0.9959086402120778,0.08089313566850187,0.04027809713026375,-0.00014288980992893663
1715269847074776600,0.422776611328125,-0.016233932226896286,-0.015869053080677986,-0.03160213679075241,0.08004941791296005,-0.16102272272109985,-0.9836990237236023,-0.0038470253348350525,-0.016375958919525146,-0.003544628620147705,0.9959164401940339,0.08085276347562265,0.04016611509446667,-0.00027969665472132865
1715269847084766700,0.4327666015625,-0.014480933547019958,-0.005185515619814396,-0.03349970653653145,0.07993827760219574,-0.16077694296836853,-0.9837482571601868,-0.00661979615688324,-0.015492573380470276,-0.007340610027313232,0.9959287793156468,0.08073437278766082,0.040097732714867815,-0.00042921488747826864
1715269847094756600,0.442756591796875,-0.008973516523838043,0.0020652066450566053,-0.030718302354216576,0.0798737034201622,-0.1605791300535202,-0.9837858080863953,-0.007089272141456604,-0.018986299633979797,-0.008691608905792236,0.9959380156490987,0.08064048624038735,0.04005250475686461,-0.0005833246738257691
1715269847104746500,0.45274658203125,-0.010938769206404686,0.008427765220403671,-0.024984583258628845,0.0798579677939415,-0.1604831963777542,-0.9838027358055115,-0.007867000997066498,-0.016488224267959595,-0.015144407749176025,0.9959421985337602,0.08059689928472422,0.04003456095133935,-0.0007056755364210909
1715269847114736600,0.462736572265625,-0.024527549743652344,0.013992439955472946,-0.01593276485800743,0.07991083711385727,-0.16034746170043945,-0.9838206171989441,-0.00904902070760727,-0.007422924041748047,-0.016438782215118408,0.9959466683526583,0.08053183039122966,0.040054079864965474,-0.0007908791296125095
1715269847124726800,0.472726806640625,-0.045562900602817535,0.019270025193691254,-0.002377408556640148,0.08002962917089462,-0.15999770164489746,-0.983867883682251,-0.006985798478126526,-0.009557962417602539,-0.016071081161499023,0.9959585545035075,0.08035662397490072,0.040110781396431545,-0.0008230724294701619
1715269847134716700,0.482716552734375,-0.05846564844250679,0.01380601804703474,0.020784635096788406,0.080152727663517,-0.15957795083522797,-0.983925998210907,0.0009324699640274048,-0.01536405086517334,-0.017538785934448242,0.9959730886815577,0.08014232845645257,0.04017706257981922,-0.0007622816348469286
1715269847144706800,0.492706787109375,-0.10671471804380417,-0.0003241815138608217,0.028435230255126953,0.08016125857830048,-0.15901561081409454,-0.9840163588523865,0.01438220590353012,-0.017025038599967957,-0.025749266147613525,0.9959959239415725,0.07985223597572112,0.04019250139439908,-0.0006143943137121854
1715269847154696700,0.50269677734375,-0.15570224821567535,0.012454464100301266,0.040239427238702774,0.08010824024677277,-0.15795545279979706,-0.9841914176940918,0.032913610339164734,-0.030399054288864136,-0.0381932258605957,0.9960399457535298,0.07930863098131408,0.040179994962578236,-0.00041914532198494836
1715269847164686600,0.5126865234375,-0.20002181828022003,0.038658104836940765,0.04894024133682251,0.08022778481245041,-0.15639236569404602,-0.984431266784668,0.05263049900531769,-0.05565902590751648,-0.06033802032470703,0.9961002587869967,0.07850787448968871,0.04026010171584024,-0.00013747934795232952
1715269847174676000,0.522676025390625,-0.1998593658208847,0.07289516925811768,0.06324434280395508,0.0806659683585167,-0.15456323325634003,-0.9846843481063843,0.056663140654563904,-0.07128210365772247,-0.09540903568267822,0.9961637194936317,0.07757087878714582,0.040504304347274846,0.00020540335926100273
1715269847184666000,0.532666015625,-0.19778220355510712,0.09821704030036926,0.08495543152093887,0.08137049525976181,-0.15275432169437408,-0.9849085807800293,0.05379185080528259,-0.05719134211540222,-0.12265056371688843,0.9962198061305569,0.07664068970507079,0.04088890477287831,0.0006404862519059917
1715269847194656300,0.54265625,-0.16608446836471558,0.12237563729286194,0.13920269906520844,0.0822526067495346,-0.15100152790546417,-0.985105574131012,0.05831135809421539,-0.04084719717502594,-0.15504634380340576,0.9962686666426321,0.07573110048199355,0.04137631425906355,0.0012626734580791776
1715269847204646100,0.552646240234375,-0.046765584498643875,0.17123053967952728,0.1987278163433075,0.08344905078411102,-0.15005743503570557,-0.9851492643356323,0.07176335155963898,-0.026959776878356934,-0.18460476398468018,0.9962779794355112,0.07521670593858729,0.04204555341651947,0.0021874427339197977
1715269847214636000,0.562635986328125,0.12523093819618225,0.18073375523090363,0.21821868419647217,0.0848696380853653,-0.1506032645702362,-0.9849445819854736,0.0848233550786972,0.001891106367111206,-0.22440600395202637,0.9962236598837966,0.0754456821055729,0.04284466069628437,0.0032877153238491386
1715269847224626200,0.572626220703125,0.2701829671859741,0.19716839492321014,0.23282918334007263,0.08639568090438843,-0.1528283804655075,-0.9844690561294556,0.09068257361650467,0.0378381609916687,-0.26180779933929443,0.9960998163620589,0.07651897420082049,0.043707342164589526,0.004430747857908202
1715269847234616000,0.582615966796875,0.2387685924768448,0.2391246259212494,0.22630417346954346,0.08816240727901459,-0.15563228726387024,-0.9838729500770569,0.10402204841375351,0.012901589274406433,-0.3041824698448181,0.9959443658332209,0.0778813878574906,0.044699146287970525,0.00560674384509996
1715269847244606000,0.59260595703125,0.11669828742742538,0.3261444568634033,0.1995084434747696,0.09061012417078018,-0.15765276551246643,-0.9833287596702576,0.11932030320167542,-0.06024274230003357,-0.34513193368911743,0.9958007894524139,0.07884774057812349,0.04602893046003978,0.006729231642510047
1715269847254596000,0.60259619140625,-0.19296450912952423,0.45843273401260376,0.17443904280662537,0.09406678378582001,-0.15749283134937286,-0.9830297231674194,0.11336119472980499,-0.14643172919750214,-0.37336981296539307,0.9957174375895401,0.07870733434218088,0.04785697149643603,0.007859856559671918
1715269847264586000,0.6125859375,-0.3951108753681183,0.6621560454368591,0.06762531399726868,0.09935599565505981,-0.15459828078746796,-0.9829688668251038,0.07750862836837769,-0.17219920456409454,-0.37890857458114624,0.995695192169481,0.07719163790611837,0.050567042058692335,0.008697341880108678
1715269847274576000,0.622575927734375,-0.3020341992378235,0.8404142260551453,0.05958602577447891,0.10670690983533859,-0.15108364820480347,-0.9827448129653931,0.054181769490242004,-0.20958834886550903,-0.42146050930023193,0.9956325780413267,0.07536070654527464,0.054298769612323015,0.009397065908231583
1715269847284566000,0.63256591796875,0.031198617070913315,0.917013943195343,0.01026588212698698,0.11540114879608154,-0.14971551299095154,-0.9819713830947876,0.09962570667266846,-0.19157779216766357,-0.4732134938240051,0.9954328141343511,0.07461374080359455,0.05871190179504433,0.009960372227211411
1715269847294556200,0.64255615234375,0.2645519971847534,0.9408561587333679,-0.06256704777479172,0.12450644373893738,-0.15128137171268463,-0.9806182384490967,0.10629800707101822,-0.03631018102169037,-0.4649384021759033,0.995090990774345,0.0753680827972277,0.06332885372091186,0.010146862871000306
1715269847304546000,0.652546142578125,0.2977180778980255,1.0679514408111572,-0.14446038007736206,0.13445179164409637,-0.15398859977722168,-0.9788821339607239,0.08721265196800232,0.044934019446372986,-0.4399716258049011,0.9946573090200322,0.07672754381369179,0.06835068656153613,0.009900196884855716
1715269847314536200,0.6625361328125,0.24972020089626312,1.238099217414856,-0.18219098448753357,0.14599692821502686,-0.15641826391220093,-0.9768409132957458,0.08399879932403564,-0.04202227294445038,-0.4250144958496094,0.9941486317642916,0.07796556558101038,0.07416804736112326,0.009434909312099393
1715269847324526000,0.672526123046875,0.25505530834198,1.362963318824768,-0.23221421241760254,0.15903612971305847,-0.15853148698806763,-0.974461555480957,0.08638624846935272,-0.15850037336349487,-0.45476818084716797,0.9935555356565451,0.07906173272976078,0.08073708603798188,0.008837612127181316
1715269847334516000,0.682515869140625,0.29325807094573975,1.449341893196106,-0.28316524624824524,0.17311617732048035,-0.1607804000377655,-0.9716894626617432,0.07027678191661835,-0.151582270860672,-0.48787474632263184,0.9928648220402969,0.08025935777880501,0.08782763761843829,0.008010100335748505
1715269847344506000,0.692506103515625,0.2679007947444916,1.5455355644226074,-0.3387629985809326,0.1881241351366043,-0.16298095881938934,-0.9685280323028564,0.041825830936431885,-0.10008054971694946,-0.48712992668151855,0.9920764798063137,0.08147393436715662,0.09538339150564452,0.00694152573426976
1715269847354496000,0.70249609375,0.22452029585838318,1.6384724378585815,-0.3729792833328247,0.20410603284835815,-0.16464634239673615,-0.9650037884712219,0.02312786877155304,-0.11130887269973755,-0.4547197222709656,0.9911959119961,0.08245839836099803,0.10343460450681176,0.005711258974739064
1715269847364486000,0.71248583984375,0.21827545762062073,1.6852277517318726,-0.4045473337173462,0.22076505422592163,-0.1659301519393921,-0.9611087441444397,0.00884920358657837,-0.12671814858913422,-0.4043087363243103,0.9902199270124685,0.08329252382436464,0.11183913499687775,0.004355907250811919
1715269847374475000,0.72247509765625,0.2959361672401428,1.7320780754089355,-0.4269479811191559,0.23783136904239655,-0.16738443076610565,-0.9567751288414001,-0.005455270409584045,-0.09509724378585815,-0.3564724922180176,0.9891305863416541,0.084263061392329,0.12046643000969004,0.0028642084265645407
1715269847384465000,0.73246484375,0.3652637004852295,1.7685129642486572,-0.45697346329689026,0.2552662789821625,-0.1695094257593155,-0.9518958330154419,-0.022844374179840088,-0.06544540822505951,-0.3217095136642456,0.9878999737847672,0.08563318920252073,0.12930212698698035,0.0012195151308738161
1715269847394455000,0.742455078125,0.4096095860004425,1.7941123247146606,-0.4830993413925171,0.27297157049179077,-0.1719580888748169,-0.9465289115905762,-0.05036109685897827,-0.051308512687683105,-0.29558229446411133,0.9865414851467436,0.08723441655585878,0.13829574702382683,-0.0005880668261520339
1715269847404445000,0.75244482421875,0.39364978671073914,1.8169747591018677,-0.5174219012260437,0.2908729314804077,-0.17437337338924408,-0.9407374262809753,-0.07850110530853271,-0.04948832094669342,-0.25556689500808716,0.9850696643517758,0.08888982311145954,0.14741063771030474,-0.002550592613416114
1715269847414435000,0.76243505859375,0.3607911765575409,1.821945071220398,-0.556620180606842,0.30885496735572815,-0.1762964129447937,-0.9346272945404053,-0.09060850739479065,-0.06409056484699249,-0.21629738807678223,0.983510082516008,0.09036851853786124,0.15658824184031062,-0.004662833786336196
1715269847424425200,0.77242529296875,0.31388261914253235,1.812011480331421,-0.5988535284996033,0.3267916440963745,-0.1776128113269806,-0.9282569289207458,-0.09801658987998962,-0.06314036250114441,-0.17139822244644165,0.9818757978874781,0.09161940729249052,0.1657631586211646,-0.0069525080110312
1715269847434415000,0.7824150390625,0.24940775334835052,1.7936276197433472,-0.6516968011856079,0.3445795774459839,-0.17814970016479492,-0.9216982126235962,-0.117055743932724,-0.05671359598636627,-0.1307920217514038,0.9801838327025505,0.09255814617613611,0.17488245407731218,-0.009430053554734363
1715269847444405000,0.792405029296875,0.1652248501777649,1.7648894786834717,-0.7082375884056091,0.3621326684951782,-0.17764244973659515,-0.9150426983833313,-0.14896735548973083,-0.05036965012550354,-0.0701715350151062,0.9784551784998129,0.0930552921127446,0.18390043134995052,-0.012121817460836293
1715269847454395100,0.80239501953125,0.05705444887280464,1.7161341905593872,-0.7713342905044556,0.3793097138404846,-0.17594099044799805,-0.908388078212738,-0.17052367329597473,-0.05696916580200195,-0.0001506805419921875,0.976713063981727,0.09303325887047675,0.19274533055201282,-0.01502658722846878
1715269847464385000,0.812385009765625,-0.07589896768331528,1.6345880031585693,-0.8433140516281128,0.3958783745765686,-0.17274148762226105,-0.9019094705581665,-0.1742139458656311,-0.07355062663555145,0.063667893409729,0.9749997698147831,0.09233674808061323,0.20129379579978018,-0.018170292860062442
1715269847474375000,0.822375,-0.2269420176744461,1.524864673614502,-0.9030870795249939,0.4115593731403351,-0.1678692251443863,-0.8957895040512085,-0.1716911792755127,-0.08416019380092621,0.133872389793396,0.9733603885532625,0.09086712351942758,0.20940015797111272,-0.021546533825150704
1715269847484365000,0.832364990234375,-0.3780195713043213,1.398660659790039,-0.9518991112709045,0.42614468932151794,-0.16127550601959229,-0.8901634216308594,-0.17204004526138306,-0.09783400595188141,0.20516586303710938,0.9718294328416768,0.08857515972054991,0.2169625253639137,-0.025083581860985638
1715269847494355000,0.84235498046875,-0.47569313645362854,1.2510584592819214,-0.9943720102310181,0.43944820761680603,-0.15324436128139496,-0.8850997090339661,-0.17338067293167114,-0.10182155668735504,0.27889853715896606,0.970424136346524,0.08559176414428779,0.22388435645335292,-0.028756504538478667
1715269847504344800,0.8523447265625,-0.4985366463661194,1.0930650234222412,-1.022578477859497,0.4512619078159332,-0.14440596103668213,-0.8806302547454834,-0.18058621883392334,-0.10065019130706787,0.3349149227142334,0.9691504083818272,0.08223937188675261,0.23004686592014023,-0.0325991789010151
1715269847514335200,0.862335205078125,-0.44842928647994995,0.9867762327194214,-1.0512486696243286,0.46180954575538635,-0.13552968204021454,-0.876563549041748,-0.18940961360931396,-0.09164316952228546,0.35832929611206055,0.967956948600254,0.07892031373125845,0.23556274792255974,-0.03662135920279136
1715269847524325000,0.8723251953125,-0.3775608241558075,0.9233125448226929,-1.1059684753417969,0.4715801477432251,-0.12690788507461548,-0.8726434111595154,-0.20630604028701782,-0.07611028850078583,0.34111881256103516,0.966769099524539,0.07583681652511838,0.24068040535461016,-0.04097861509101808
1715269847534315000,0.88231494140625,-0.36576274037361145,0.8256142139434814,-1.1443041563034058,0.4805680513381958,-0.11833826452493668,-0.8689363598823547,-0.2360306680202484,-0.05571873486042023,0.32665425539016724,0.96560074953237,0.07287713843973484,0.24539914496154625,-0.04564436014557427
1715269847544305200,0.89230517578125,-0.41690006852149963,0.7518590688705444,-1.1725744009017944,0.4886948764324188,-0.10936657339334488,-0.8655728101730347,-0.2709366977214813,-0.023735836148262024,0.34239470958709717,0.9644886959731694,0.06976503733811104,0.24969266780918392,-0.05047927546713604
1715269847554295000,0.902294921875,-0.4854178726673126,0.6899469494819641,-1.1966626644134521,0.49616920948028564,-0.09966012835502625,-0.8624870777130127,-0.29962074756622314,-0.029536038637161255,0.3630211353302002,0.9634197962510518,0.06630246605523543,0.25369359533695046,-0.05537011024482713
1715269847564285000,0.912284912109375,-0.5475592613220215,0.6115677356719971,-1.2015775442123413,0.5029134750366211,-0.08921820670366287,-0.8597198128700256,-0.3254232406616211,-0.05479424446821213,0.3902679681777954,0.9624068186219127,0.06247016906811689,0.25736660582504645,-0.06027438038711508
1715269847574275000,0.922275146484375,-0.6342294812202454,0.524159848690033,-1.1892551183700562,0.5087941884994507,-0.07814487814903259,-0.8573341965675354,-0.3252767324447632,-0.042765744030475616,0.4193459153175354,0.9614729616344605,0.058283538469292684,0.2606452486335558,-0.06509079632633746
1715269847584265000,0.932264892578125,-0.8316895365715027,0.4146602153778076,-1.1664516925811768,0.5136683583259583,-0.06589143723249435,-0.8554549217224121,-0.30616408586502075,-0.029704876244068146,0.4300704598426819,0.9606629932403801,0.05340321588355157,0.26347794721117335,-0.06967101506030532
1715269847594254800,0.9422548828125,-0.9835176467895508,0.3249654769897461,-1.1195683479309082,0.5174545049667358,-0.0521722286939621,-0.854118824005127,-0.29041898250579834,-0.02564758062362671,0.45127153396606445,0.960002262555966,0.047625872651466394,0.2658427638557873,-0.07385881713769399
1715269847604245000,0.952244873046875,-1.0941927433013916,0.25467002391815186,-1.068116545677185,0.5204277038574219,-0.037679523229599,-0.8530740141868591,-0.2685813307762146,-0.028085857629776,0.4658365249633789,0.9594295617246824,0.041320837986573655,0.2678723112981084,-0.07766637339263843
1715269847614235100,0.962235107421875,-1.2366257905960083,0.18232472240924835,-1.0317503213882446,0.5225924253463745,-0.022272221744060516,-0.8522917032241821,-0.2542818784713745,-0.03948007524013519,0.45252668857574463,0.9589427824020561,0.03440676069090352,0.2695743619761338,-0.08108339346470556
1715269847624225000,0.97222509765625,-1.255182147026062,0.15905562043190002,-0.9804485440254211,0.524139404296875,-0.006289733108133078,-0.8516092300415039,-0.24816900491714478,-0.011303633451461792,0.4488230347633362,0.9584978957271548,0.027085204540887184,0.271038312876145,-0.08418088521121925
1715269847634215200,0.982215087890625,-1.1087080240249634,0.1424201875925064,-0.9486865997314453,0.5254341959953308,0.008844053372740746,-0.8507882952690125,-0.2298256754875183,0.009191839955747128,0.41743868589401245,0.9580180305966299,0.02016447958590646,0.2723954102232182,-0.0871525755290295
1715269848503345000,1.851344970703125,1.002036452293396,0.8368653059005737,-1.1214097738265991,0.03361984342336655,0.29113778471946716,-0.9560902118682861,-0.16614241898059845,-0.21875005960464478,-0.09189867973327637,0.6645151454860927,-0.11149276028660778,-0.09759229852823763,0.7324375380448038
1715269848513335000,1.8613349609375,1.1626931428909302,0.8251660466194153,-1.2373478412628174,0.0381852351129055,0.28121188282966614,-0.958885669708252,-0.1693345159292221,-0.19992834329605103,-0.05084937810897827,0.66981782291881,-0.11035897972308406,-0.09153169357038177,0.7285512945342577
1715269848523325000,1.871324951171875,1.3817899227142334,0.7931755781173706,-1.3565022945404053,0.042335640639066696,0.2695533037185669,-0.962054431438446,-0.1676102876663208,-0.1743384599685669,-0.007427990436553955,0.6755705339798148,-0.10844072421888751,-0.08493173555029149,0.7243145813211386
1715269848533314800,1.881314697265625,1.5504876375198364,0.7768839597702026,-1.4684765338897705,0.04614590108394623,0.2560071051120758,-0.9655728340148926,-0.16504237055778503,-0.14129149913787842,0.025402545928955078,0.6817723306338446,-0.1056943188516282,-0.07773213288748033,0.7197034686228386
1715269848543305000,1.891304931640625,1.6769481897354126,0.7586492896080017,-1.5800446271896362,0.049762651324272156,0.24109554290771484,-0.969224750995636,-0.16843023896217346,-0.11662958562374115,0.039567768573760986,0.6883605287885725,-0.10233730915497655,-0.07010489898601382,0.7146833435935624
1715269848553294800,1.901294921875,1.763304591178894,0.7045751810073853,-1.6739088296890259,0.05303409323096275,0.22523969411849976,-0.9728589057922363,-0.15665651857852936,-0.10312359035015106,0.04803895950317383,0.695254818649975,-0.09844289714119044,-0.06228593637658171,0.7092603561048347
1715269848563285000,1.911284912109375,1.9071044921875,0.6500130891799927,-1.762313961982727,0.05584561824798584,0.20836614072322845,-0.9764552116394043,-0.13937221467494965,-0.09812137484550476,0.0740199089050293,0.7023982192938586,-0.09392646989447988,-0.05431574249174314,0.7034661283092668
1715269848573275000,1.92127490234375,2.2551429271698,0.5832420587539673,-1.841015100479126,0.05822998285293579,0.1891876608133316,-0.9802128672599792,-0.1448693722486496,-0.08408510684967041,0.10144394636154175,0.7098089094203015,-0.08832028433909596,-0.04575025566758364,0.6973361946703205
1715269848583264800,1.9312646484375,2.8885724544525146,0.5003519654273987,-1.9066162109375,0.06012289971113205,0.16523708403110504,-0.984419584274292,-0.14555683732032776,-0.04425013065338135,0.12496829032897949,0.7175016083715952,-0.0806781661734721,-0.035794350813405616,0.6909422605277259
1715269848593255000,1.9412548828125,3.8161377906799316,0.422855019569397,-1.9395818710327148,0.061707302927970886,0.1334913969039917,-0.9891270399093628,-0.12229993939399719,0.051353588700294495,0.1483067274093628,0.7254413458167955,-0.06991404518158945,-0.02342044582999598,0.6843233123062661
1715269848603245000,1.9512451171875,4.785003662109375,0.2841099202632904,-1.9456027746200562,0.06285019963979721,0.09186949580907822,-0.9937856197357178,-0.09228438884019852,0.21004092693328857,0.15348410606384277,0.7334453703796602,-0.05515120609209054,-0.008095469895680406,0.6774590659486076
1715269848613235000,1.96123486328125,5.640545845031738,0.13582806289196014,-1.9442685842514038,0.06339209526777267,0.04101070389151573,-0.9971457123756409,-0.08063451200723648,0.39284244179725647,0.13423067331314087,0.7411884922737805,-0.03649415468069507,0.00976331269378548,0.67023318456386
1715269848623225000,1.97122509765625,5.893478870391846,-0.028208542615175247,-1.9135128259658813,0.06347297877073288,-0.015958674252033234,-0.9978559613227844,-0.08065436035394669,0.5067423582077026,0.14115124940872192,0.7483627047611933,-0.015069542015078269,0.02906772143266111,0.66248125300457
1715269848633215000,1.981215087890625,5.498729705810547,-0.19027413427829742,-1.8808369636535645,0.06308238208293915,-0.07171859592199326,-0.9954280853271484,-0.07148995995521545,0.47088852524757385,0.18768882751464844,0.7547491854302372,0.006443085797666594,0.04737560584731415,0.6542688542165492
1715269848643204900,1.991204833984375,4.884605884552002,-0.38781625032424927,-1.7963289022445679,0.06195421144366264,-0.12217594683170319,-0.9905729293823242,-0.03833358734846115,0.3108813762664795,0.2626371383666992,0.7603856103790886,0.02656961888211776,0.0633055635651064,0.6458328997158737
1715269848653195000,2.001195068359375,4.248226165771484,-0.5669428110122681,-1.6758629083633423,0.05966528505086899,-0.16611601412296295,-0.9842994809150696,0.00828210636973381,0.11536528170108795,0.33935630321502686,0.7653124864349552,0.044898542992431525,0.07638302463531732,0.6375315835151352
1715269848663185000,2.011184814453125,3.822413206100464,-0.5858206748962402,-1.5458016395568848,0.056805044412612915,-0.2045975923538208,-0.9771965146064758,0.03905068710446358,0.03365336358547211,0.32105332612991333,0.7695820225305597,0.06154807382122551,0.08725584089824384,0.6295567460206148
1715269848673174800,2.0211748046875,3.7052621841430664,-0.6331064105033875,-1.4522160291671753,0.0543874055147171,-0.24020402133464813,-0.9691976308822632,0.04088848829269409,0.10006728768348694,0.2615407705307007,0.773233711563297,0.07714437708583116,0.09721074577351264,0.6218589826474265
1715269848683165000,2.0311650390625,3.7728960514068604,-0.8136269450187683,-1.336399793624878,0.05098028853535652,-0.27546846866607666,-0.9599573612213135,0.046813301742076874,0.21867525577545166,0.19085335731506348,0.7763291379336192,0.0931346785634438,0.10652346975164328,0.6142409058026361
1715269848693154800,2.04115478515625,3.879196882247925,-0.8614804744720459,-1.2013790607452393,0.04656964913010597,-0.3113636076450348,-0.9491490721702576,0.08354206383228302,0.3134845495223999,0.13382619619369507,0.7787264275283065,0.10989943691184392,0.115531699468907,0.6067616489081995
1715269848703145000,2.05114501953125,3.9092977046966553,-0.8777481317520142,-1.0735185146331787,0.04217498004436493,-0.34761548042297363,-0.9366881847381592,0.11833223700523376,0.34695932269096375,0.13700556755065918,0.7803665410911356,0.12701297865525946,0.1245937696596163,0.5994766863809825
1715269848713135000,2.061135009765625,3.7464656829833984,-0.9432067275047302,-0.9258779287338257,0.037363264709711075,-0.38288262486457825,-0.9230411052703857,0.10988406091928482,0.31560659408569336,0.11136507987976074,0.7813344760491221,0.1440542725246187,0.1331458458568197,0.592483687367695
1715269848723124000,2.0711240234375,3.450591802597046,-0.981688380241394,-0.7876685857772827,0.031930990517139435,-0.4156044125556946,-0.9089848399162292,0.10977739095687866,0.2695625126361847,0.06819504499435425,0.7817656638687324,0.16039693955541232,0.140642843089068,0.5859479041272158
1715269848733114000,2.081114013671875,3.0018563270568848,-1.008281946182251,-0.6768773794174194,0.02607952430844307,-0.4445939064025879,-0.8953525424003601,0.12440266460180283,0.2145218551158905,0.03310889005661011,0.781893611369534,0.17542951758572087,0.14679312346342804,0.5799300170791061
1715269848743104000,2.09110400390625,2.4969632625579834,-0.9993956685066223,-0.5836067795753479,0.02002367377281189,-0.4688373804092407,-0.8830575346946716,0.1422383040189743,0.14693793654441833,-0.01420503854751587,0.7819671704788288,0.18858252209775794,0.15135348569994073,0.574505098382158
1715269848753094000,2.101093994140625,2.0103673934936523,-0.9566293358802795,-0.4760454297065735,0.013951214961707592,-0.48847606778144836,-0.8724657297134399,0.16735371947288513,0.08675792813301086,-0.03364688158035278,0.7820466608212704,0.19976981173009942,0.15446406406547084,0.569768260063407
1715269848763084000,2.111083984375,1.7028356790542603,-0.9089808464050293,-0.39689651131629944,0.008035164326429367,-0.5044093728065491,-0.8634272217750549,0.16905835270881653,0.05985987186431885,-0.04765975475311279,0.7821096643120011,0.20926921925498404,0.1565016801238416,0.5657014182553594
1715269848773074000,2.121073974609375,1.618851661682129,-0.8680041432380676,-0.34989437460899353,0.0022916514426469803,-0.5185599327087402,-0.8550382256507874,0.14381125569343567,0.08458471298217773,-0.061023175716400146,0.7820956736927768,0.21793379508180424,0.15806880923172503,0.5620014377941752
1715269848783063800,2.131063720703125,1.6081573963165283,-0.8594556450843811,-0.3062036633491516,-0.00333674275316298,-0.532258927822113,-0.8465750217437744,0.11936458200216293,0.12422364950180054,-0.08120507001876831,0.7819105224597835,0.22638796202339823,0.15956494088030362,0.5584832183184427
1715269848793054000,2.141053955078125,1.6836540699005127,-0.8569672107696533,-0.2753259241580963,-0.008992771618068218,-0.5460873246192932,-0.8376799821853638,0.11444626748561859,0.16104698181152344,-0.08335578441619873,0.7815131900059327,0.23495158535430127,0.1611140874798766,0.5550469909884441
1715269848803043800,2.1510439453125,1.8219351768493652,-0.8383287787437439,-0.26562488079071045,-0.01460918877273798,-0.5606817603111267,-0.8279025554656982,0.1299961507320404,0.18595635890960693,-0.10080838203430176,0.7808557059310558,0.24392400154379607,0.16294114858435807,0.5515575310095966
1715269848813033700,2.16103369140625,1.885303258895874,-0.8271211385726929,-0.2630722224712372,-0.0199640654027462,-0.5760360360145569,-0.8171805143356323,0.1413324773311615,0.1831068992614746,-0.12843716144561768,0.779954526806878,0.25326120867484486,0.16513175307259645,0.5479611033175993
1715269848823024000,2.171024169921875,1.827083706855774,-0.8394486904144287,-0.250709593296051,-0.025248924270272255,-0.5912222862243652,-0.8061133623123169,0.1451677531003952,0.15866613388061523,-0.1459892988204956,0.7789380517818926,0.26259126038101727,0.16729956680121918,0.5443458405283635
1715269848833014000,2.181013916015625,1.6348375082015991,-0.8102356791496277,-0.23719005286693573,-0.0304114893078804,-0.6051979064941406,-0.7954939603805542,0.142746701836586,0.12070083618164062,-0.1446610689163208,0.7779766075632675,0.2713889943807882,0.16911839783031657,0.5408321824678185
1715269848843004000,2.19100390625,1.3197494745254517,-0.7775192260742188,-0.2554604709148407,-0.035157784819602966,-0.6169881820678711,-0.7861867547035217,0.12286531180143356,0.05438131093978882,-0.12720435857772827,0.7772855567965016,0.27907141923150386,0.17036950385924932,0.5375134681116699
1715269848852994000,2.200994140625,0.9685892462730408,-0.7107356786727905,-0.24711039662361145,-0.03941832855343819,-0.6260345578193665,-0.7787984609603882,0.08864318579435349,-0.019595324993133545,-0.10027563571929932,0.7769713578129527,0.28529415267976693,0.17090353775081524,0.5345231079697019
1715269848862984000,2.21098388671875,0.6054089069366455,-0.6735800504684448,-0.24268069863319397,-0.04324280843138695,-0.6322177648544312,-0.7735831141471863,0.055892352014780045,-0.07624781131744385,-0.06542140245437622,0.7770874825911809,0.289972125611393,0.17065936507361845,0.5319085752608155
1715269848872973800,2.220973876953125,0.3183595538139343,-0.6345306634902954,-0.24392811954021454,-0.04677639529109001,-0.6358158588409424,-0.770422101020813,0.03281460702419281,-0.11174279451370239,-0.03486049175262451,0.7776231533640502,0.2932631250235551,0.1696634853771219,0.5296351255919843
1715269848882964000,2.2309638671875,0.13150349259376526,-0.5764614939689636,-0.2725602984428406,-0.04980498552322388,-0.6375845670700073,-0.7687687873840332,0.021820377558469772,-0.12086880207061768,-0.018828868865966797,0.7784944233504194,0.2954776354666175,0.16825153796727382,0.5275708170298138
1715269848892953900,2.240953857421875,0.020890425890684128,-0.5411474704742432,-0.3002936542034149,-0.0522499680519104,-0.6383318305015564,-0.767985999584198,0.020176000893115997,-0.1231580376625061,-0.026691734790802002,0.7795970405228418,0.29700599979538556,0.16671667490560646,0.5255678691623706
1715269848902943700,2.25094384765625,-0.03354394808411598,-0.5167962908744812,-0.3242770731449127,-0.05433674901723862,-0.6384087800979614,-0.767777144908905,0.014862265437841415,-0.09875857830047607,-0.047637224197387695,0.7808682655722801,0.2980933488124213,0.16508111315792812,0.523577521592298
1715269848912934000,2.260933837890625,0.0006752759218215942,-0.4791562855243683,-0.3625733256340027,-0.055967625230550766,-0.638462483882904,-0.7676153182983398,0.005628887563943863,-0.04020273685455322,-0.04959958791732788,0.7821981418648813,0.2990423580180678,0.16360316402263814,0.5215110789241215
1715269848922923800,2.270923828125,0.014541663229465485,-0.464984267950058,-0.3988369405269623,-0.05715121328830719,-0.6387677192687988,-0.7672741413116455,-0.006065946072340012,-0.009501993656158447,-0.06555056571960449,0.7835552836139168,0.3000036689150497,0.16235989697569958,0.5193055202983989
1715269848932914000,2.280913818359375,-0.017293497920036316,-0.45371776819229126,-0.4141610562801361,-0.05807258561253548,-0.6390089392662048,-0.7670040130615234,-0.013781044632196426,-0.015501558780670166,-0.08017915487289429,0.7849827114669296,0.30086819848214846,0.16117169571172904,0.5170147185192502
1715269848942904000,2.290904052734375,-0.08158044517040253,-0.4231739938259125,-0.420134037733078,-0.058789949864149094,-0.638885498046875,-0.767052173614502,-0.0074331872165203094,-0.028045654296875,-0.07445472478866577,0.7864839836207514,0.30148257408720425,0.15994426157144598,0.5147513910855893
1715269848952894000,2.30089404296875,-0.16564393043518066,-0.39890700578689575,-0.4127594828605652,-0.059260524809360504,-0.6381860971450806,-0.767598032951355,0.004725620150566101,-0.05000060796737671,-0.06629478931427002,0.7880671631738043,0.3017144429950419,0.1586486039594717,0.5125907034706475
1715269848962883800,2.3108837890625,-0.21546517312526703,-0.38048189878463745,-0.39930957555770874,-0.059689316898584366,-0.636932909488678,-0.7686049938201904,0.006161488592624664,-0.05764716863632202,-0.0631973147392273,0.7897063062468925,0.3016301711134334,0.1572155705144967,0.5105549780870683
1715269848972874000,2.3208740234375,-0.21587422490119934,-0.34569862484931946,-0.401193231344223,-0.059934064745903015,-0.6354951858520508,-0.7697752118110657,0.007275991141796112,-0.04168987274169922,-0.07099932432174683,0.7913356316229299,0.30137864160525907,0.15583105904388406,0.5086017441921638
1715269848982864000,2.33086376953125,-0.22711218893527985,-0.3390199542045593,-0.3950221836566925,-0.06004077196121216,-0.6340500116348267,-0.7709576487541199,0.011105842888355255,-0.02776944637298584,-0.08081841468811035,0.79293966565415,0.3010714838324003,0.15452225384934304,0.5066810311028239
1715269848992853800,2.340853759765625,-0.21016915142536163,-0.3061267137527466,-0.3684840500354767,-0.06013255566358566,-0.6325650215148926,-0.7721694111824036,0.013471182435750961,-0.015460491180419922,-0.09306496381759644,0.794489775548569,0.3007185529001471,0.1532437946948914,0.5048471542455786
1715269849002844000,2.350843994140625,-0.16578203439712524,-0.26587116718292236,-0.34965980052948,-0.06008363887667656,-0.63133704662323,-0.7731775641441345,0.013284940272569656,-0.00011748075485229492,-0.10427910089492798,0.7958921731057664,0.3004247100226179,0.1521716907774087,0.5031346349357878
1715269849012833800,2.360833740234375,-0.13490508496761322,-0.25477537512779236,-0.3407347500324249,-0.05991600081324577,-0.6303738951683044,-0.7739760279655457,0.012842640280723572,0.008334100246429443,-0.12327128648757935,0.7971815230847198,0.30021233426936433,0.15127637959265428,0.5014875098057299
1715269849022824000,2.370823974609375,-0.07485970109701157,-0.24143533408641815,-0.3303416967391968,-0.05973920226097107,-0.6297510266304016,-0.7744965553283691,0.014588449150323868,0.028646230697631836,-0.12476491928100586,0.7983682024299358,0.30016073587229286,0.15051664103752618,0.49985651978917556
1715269849032814000,2.38081396484375,-0.023104622960090637,-0.23246686160564423,-0.323259562253952,-0.05952377989888191,-0.629596471786499,-0.774638831615448,0.019408423453569412,0.04771775007247925,-0.1172526478767395,0.7994290503321088,0.3003282220640069,0.14994516454334605,0.4982295985742578
1715269849042804000,2.390803955078125,-0.041755594313144684,-0.23172757029533386,-0.3103626072406769,-0.05934104323387146,-0.6295473575592041,-0.774692714214325,0.025542836636304855,0.0329744815826416,-0.11140036582946777,0.8004347007704313,0.3005493012594937,0.14941142231256838,0.49663935008789517
1715269849052793900,2.4007939453125,-0.08610734343528748,-0.20498517155647278,-0.28634703159332275,-0.05917905643582344,-0.6292463541030884,-0.7749496698379517,0.04126524552702904,0.0021253228187561035,-0.09338223934173584,0.8014270133582857,0.30062733997866375,0.1488233064993247,0.49516636297334515
1715269849062784000,2.410783935546875,-0.15341223776340485,-0.17441928386688232,-0.2638309895992279,-0.05893194302916527,-0.6284828782081604,-0.7755876779556274,0.053194645792245865,-0.0303458571434021,-0.07589846849441528,0.802426927819846,0.30041668992459014,0.1481754631348015,0.49386721276819756
1715269849072774000,2.42077392578125,-0.20823819935321808,-0.15451161563396454,-0.24576222896575928,-0.0586298331618309,-0.627204418182373,-0.7766448259353638,0.0533350333571434,-0.04987388849258423,-0.06924140453338623,0.8034456580011727,0.2998991315972533,0.14743848499025713,0.49274476297110825
1715269849082764000,2.430763916015625,-0.21885520219802856,-0.12824486196041107,-0.23023095726966858,-0.05825033783912659,-0.6256529688835144,-0.7779237031936646,0.052680883556604385,-0.03770768642425537,-0.07519519329071045,0.80445393865615,0.29919920713161596,0.14669004608885697,0.4917478070206063
1715269849092754000,2.44075390625,-0.17783933877944946,-0.11393250524997711,-0.2164946347475052,-0.05780662223696709,-0.624225914478302,-0.7791023850440979,0.052328720688819885,-0.017680883407592773,-0.0828513503074646,0.8053875126941368,0.2985304314935533,0.14604246737573398,0.4908179365857367
1715269849102743800,2.450743896484375,-0.13606809079647064,-0.11706651747226715,-0.21041814982891083,-0.057405270636081696,-0.623129665851593,-0.7800089716911316,0.054780758917331696,-0.006646394729614258,-0.08925366401672363,0.8062208384043431,0.29803421424235965,0.1455029495147231,0.48991067926212695
1715269849112734000,2.46073388671875,-0.10216657817363739,-0.1083848774433136,-0.20454828441143036,-0.05703040957450867,-0.6223266124725342,-0.7806773781776428,0.06469032913446426,0.00420832633972168,-0.09125560522079468,0.8069821076675588,0.29769238412852417,0.14505362506748098,0.4889976816959539
1715269849122723800,2.470723876953125,-0.08404531329870224,-0.08782020211219788,-0.19945591688156128,-0.05655071139335632,-0.621737539768219,-0.7811814546585083,0.07042096555233002,0.008273184299468994,-0.08304578065872192,0.8076817222216942,0.29742525955907545,0.14473245207003943,0.4880994707487253
1715269849132714000,2.4807138671875,-0.06027872487902641,-0.05379459634423256,-0.17772185802459717,-0.05593711510300636,-0.6212729811668396,-0.7815951704978943,0.06551963835954666,-0.004886746406555176,-0.07297331094741821,0.8083025531509465,0.29716831298943197,0.1445455198155985,0.48728301382247646
1715269849142704000,2.4907041015625,-0.04155462607741356,-0.019642218947410583,-0.1680973321199417,-0.055191900581121445,-0.6209746599197388,-0.7818850874900818,0.06309595704078674,-0.01797187328338623,-0.06638151407241821,0.8088204320121284,0.29693939583213,0.1445145746139136,0.48657164561468447
1715269849152694000,2.500694091796875,-0.008029691874980927,-0.01056190486997366,-0.17047366499900818,-0.05428075045347214,-0.6208585500717163,-0.7820411324501038,0.06340551376342773,-0.014181792736053467,-0.06257861852645874,0.8092809115075732,0.29675137769442295,0.14463076301394678,0.4858858358347411
1715269849162684000,2.510683837890625,0.03671402111649513,-0.004839038476347923,-0.1760195791721344,-0.05327262356877327,-0.6210602521896362,-0.7819502353668213,0.06493034213781357,0.0034607648849487305,-0.05102705955505371,0.8096809962533816,0.29670136376641326,0.14489023946430477,0.4851719680977747
1715269849172674000,2.520674072265625,0.08319630473852158,-0.00620257668197155,-0.17264002561569214,-0.05225762352347374,-0.6216280460357666,-0.7815674543380737,0.07006463408470154,0.013015985488891602,-0.049197256565093994,0.810014321890385,0.29684092452967586,0.1452643319270111,0.48441771143037504
1715269849182663700,2.53066357421875,0.10866150259971619,-0.007689952850341797,-0.1775755137205124,-0.051259178668260574,-0.622483491897583,-0.780952513217926,0.07506290078163147,0.012238681316375732,-0.0518873929977417,0.8102981951349794,0.29713730100061586,0.14571602811194556,0.4836249909642566
1715269849192653600,2.540653564453125,0.11614711582660675,-0.00900102686136961,-0.18328987061977386,-0.050230830907821655,-0.6234571933746338,-0.7802422642707825,0.07340893894433975,0.011747539043426514,-0.053162217140197754,0.8105631394212356,0.297489553238258,0.14621498474187156,0.4828132314097326
1715269849202643700,2.550643798828125,0.122976154088974,-0.013942256569862366,-0.18225210905075073,-0.04902409762144089,-0.6243985295295715,-0.7795659303665161,0.07264471054077148,0.008416533470153809,-0.04971867799758911,0.8108671092360326,0.29778695961345786,0.14676496265379135,0.4819516971242125
1715269849212633600,2.560633544921875,0.13089053332805634,-0.01932450383901596,-0.1689794510602951,-0.047910403460264206,-0.6253834366798401,-0.7788454294204712,0.069898322224617,0.0023975372314453125,-0.05382668972015381,0.8111465635066171,0.29813023295056224,0.14729444471184108,0.48110714206590366
1715269849222623500,2.57062353515625,0.14400698244571686,-0.018029674887657166,-0.162976935505867,-0.04689539968967438,-0.6264902949333191,-0.7780171632766724,0.06648769974708557,-0.002812623977661133,-0.05405980348587036,0.8113763566119716,0.2985588244156926,0.14783110913982933,0.48028848997681706
1715269849232613600,2.580613525390625,0.14450179040431976,-0.012471125461161137,-0.16283205151557922,-0.04584319889545441,-0.6276552677154541,-0.7771404385566711,0.0559903047978878,-0.008544683456420898,-0.05014526844024658,0.8115913787269039,0.299008450393024,0.14840397943779476,0.4794680194602667
1715269849242603500,2.590603515625,0.11263754963874817,-0.005218538921326399,-0.15111015737056732,-0.04473014920949936,-0.628629744052887,-0.7764173150062561,0.04460808262228966,-0.012330949306488037,-0.03504502773284912,0.8118175663583922,0.2993358092508998,0.14896110082828878,0.4787075557717567
1715269849252593400,2.600593505859375,0.0794079601764679,0.003622889518737793,-0.1276559680700302,-0.0436674989759922,-0.6293063163757324,-0.7759296298027039,0.037457175552845,-0.011806964874267578,-0.015192806720733643,0.8120563993002702,0.29950921029287,0.14943032552665178,0.4780474105917114
1715269849262583600,2.61058349609375,0.08196864277124405,0.003936876077204943,-0.1141590029001236,-0.04261178523302078,-0.6298118829727173,-0.7755780220031738,0.029138274490833282,-0.000055670738220214844,-0.0012927055358886719,0.8122782998748052,0.299580737307339,0.14987448975741413,0.4774862655496004
1715269849272573400,2.620573486328125,0.09720592200756073,0.0025083564687520266,-0.11833004653453827,-0.041514988988637924,-0.6303701400756836,-0.775183916091919,0.02192271500825882,0.007735252380371094,0.0007240772247314453,0.8124857089378116,0.29966821203198624,0.1503562467817817,0.47692678427555324
1715269849282563600,2.6305634765625,0.12923917174339294,-0.005430527031421661,-0.10931357741355896,-0.04043767601251602,-0.631105363368988,-0.7746424078941345,0.01797673851251602,0.008958697319030762,-0.006058216094970703,0.8126577001066762,0.2998547869794876,0.15088371403121054,0.4763494061468994
1715269849292553700,2.6405537109375,0.14980675280094147,-0.015263449400663376,-0.10210572928190231,-0.03940669447183609,-0.6320213675498962,-0.7739483714103699,0.011254239827394485,0.01661914587020874,-0.0077898502349853516,0.8127892285254825,0.30014870181173103,0.15144822895576254,0.47576030159550126
1715269849302543600,2.650543701171875,0.13484516739845276,-0.006088061258196831,-0.10516976565122604,-0.03831852227449417,-0.6328963041305542,-0.7732877731323242,0.003970995545387268,0.0198134183883667,-0.009335517883300781,0.812925689605337,0.3004057235702758,0.15202800180759204,0.47517979032908625
1715269849312533500,2.660533447265625,0.1031479611992836,0.004917984828352928,-0.10582969337701797,-0.03710576891899109,-0.6336155533790588,-0.7727577686309814,-0.003085874021053314,0.014719009399414062,-0.011635541915893555,0.8130954674998906,0.30054901657276545,0.15261521161789876,0.47461017482928813
1715269849322523600,2.670523681640625,0.08417245745658875,0.01617809571325779,-0.10031362622976303,-0.03591342642903328,-0.6341787576675415,-0.7723520398139954,-0.007406264543533325,0.0028310418128967285,-0.011583507061004639,0.8132733840136699,0.30061004783091494,0.1531587117284762,0.4740913316951251
1715269849332513500,2.680513427734375,0.062103644013404846,0.03049311973154545,-0.09615083783864975,-0.03469637781381607,-0.634714663028717,-0.7719672918319702,-0.009905055165290833,-0.009557247161865234,-0.008153557777404785,0.8134271551374969,0.30064161498379743,0.15372365423850812,0.4736243325487552
1715269849342503400,2.69050341796875,0.03690183162689209,0.028229964897036552,-0.0971725583076477,-0.03354072570800781,-0.6350589990615845,-0.7717351317405701,-0.015729892998933792,-0.014171957969665527,-0.006676673889160156,0.813600051100103,0.3005842245814086,0.15421270008727375,0.4732045547250541
1715269849352493600,2.70049365234375,-0.002826673910021782,0.03135092556476593,-0.09588838368654251,-0.03247837349772453,-0.6350850462913513,-0.7717590928077698,-0.02021022140979767,-0.010819494724273682,-0.0004271864891052246,0.8138253407426207,0.3003822907938407,0.15456689855756595,0.4728296256496821
1715269849362483500,2.7104833984375,-0.021491598337888718,0.035174958407878876,-0.09133996814489365,-0.03147365152835846,-0.6348094940185547,-0.7720273733139038,-0.020818207412958145,-0.011919021606445312,0.007165372371673584,0.8140961777074455,0.30003344326672393,0.1548103165903914,0.4725050341615377
1715269849372473600,2.7204736328125,-0.03700663894414902,0.03714010491967201,-0.08720434457063675,-0.030583146959543228,-0.6343076229095459,-0.77247554063797,-0.020579569041728973,-0.011642694473266602,0.007598280906677246,0.8143785162460903,0.2995864094265143,0.15495225585902284,0.47225560861730354
1715269849382463700,2.730463623046875,-0.04659758880734444,0.027507450431585312,-0.08791221678256989,-0.029902273789048195,-0.6335808634757996,-0.7730984091758728,-0.016820132732391357,-0.007715582847595215,0.006557941436767578,0.8146937983640825,0.2990750408323898,0.15493516088025158,0.4720415689660477
1715269849392453600,2.74045361328125,-0.027943212538957596,0.04161980748176575,-0.09300337731838226,-0.029302390292286873,-0.6329705119132996,-0.773621141910553,-0.01165219396352768,0.000020623207092285156,0.009003281593322754,0.8149772562727061,0.2986445385483889,0.154922093133847,0.47182907983474975
1715269849402443500,2.750443603515625,-0.021722175180912018,0.041191570460796356,-0.09468396753072739,-0.02869466505944729,-0.632663369178772,-0.7738951444625854,-0.011527501046657562,-0.0018275976181030273,0.006271243095397949,0.8151996627663926,0.2983710761075886,0.15500682436776517,0.4715900914684278
1715269849412433700,2.76043359375,-0.02726474404335022,0.038108959794044495,-0.09257660806179047,-0.02815132401883602,-0.632570207118988,-0.7739912271499634,-0.015153108164668083,-0.002790510654449463,0.004414260387420654,0.8153763449073468,0.29822667386003365,0.15512973452760112,0.4713353655668757
1715269849422423600,2.770423583984375,-0.017487162724137306,0.05118721351027489,-0.09397050738334656,-0.027683168649673462,-0.6325802206993103,-0.7739999890327454,-0.013622365891933441,0.0008053183555603027,0.009534657001495361,0.8155238280610806,0.29815405849167265,0.15525518590342383,0.4710849437623784
1715269849432413700,2.78041357421875,-0.0233415886759758,0.04778315871953964,-0.08814537525177002,-0.0272709708660841,-0.6326417922973633,-0.7739642262458801,-0.011196425184607506,-0.004351556301116943,0.008812308311462402,0.8156400226002369,0.29811701174233557,0.15538381827344375,0.4708645959805074
1715269849442403600,2.790403564453125,-0.031427692621946335,0.03377040475606918,-0.09143651276826859,-0.02693728730082512,-0.6327081322669983,-0.7739217281341553,-0.0040075331926345825,-0.004743099212646484,0.016719579696655273,0.8157639156919821,0.2981066295143781,0.1554720919262289,0.47062746201564853
1715269849452393500,2.8003935546875,-0.050376083701848984,0.025352686643600464,-0.09054248780012131,-0.026645665988326073,-0.632664680480957,-0.7739673256874084,0.004184730350971222,-0.005000174045562744,0.022807717323303223,0.8159245605353213,0.29805508523525104,0.15549756923882868,0.4703731829861407
1715269849462383600,2.810383544921875,-0.0668797492980957,0.02255796454846859,-0.08482547849416733,-0.02632053755223751,-0.6324265599250793,-0.7741730213165283,0.00623997300863266,-0.013584792613983154,0.02080082893371582,0.8161315738451005,0.2978949191010058,0.15547376811009916,0.4701232240070388
1715269849472373500,2.82037353515625,-0.08386193215847015,0.03163428604602814,-0.08310054987668991,-0.025888027623295784,-0.6319519877433777,-0.7745750546455383,0.0030151084065437317,-0.014303505420684814,0.01960068941116333,0.8163765786476133,0.29757878632354207,0.15543276504670678,0.4699114630119345
1715269849482363600,2.83036376953125,-0.09266548603773117,0.03265587240457535,-0.07964103668928146,-0.025416629388928413,-0.6313756108283997,-0.7750605344772339,-0.0014998670667409897,-0.008364379405975342,0.019002854824066162,0.8166309492824854,0.297195398593877,0.1553854560944566,0.4697276212581475
1715269849492353800,2.840353759765625,-0.0742712989449501,0.03579920157790184,-0.08022240549325943,-0.025011345744132996,-0.6308482885360718,-0.7755030393600464,-0.0024239495396614075,-0.004878699779510498,0.016500353813171387,0.8168675883269934,0.2968530959882388,0.15532781942738982,0.4695518959568118
1715269849502343700,2.85034375,-0.041651833802461624,0.036688432097435,-0.07859468460083008,-0.024543728679418564,-0.6305385828018188,-0.7757697701454163,0.0017318427562713623,-0.000030934810638427734,0.01264721155166626,0.8170598944084674,0.29660803955276527,0.15536663260006525,0.46935918762998546
1715269849512333600,2.86033349609375,-0.009883517399430275,0.03716859966516495,-0.0799558237195015,-0.02403523400425911,-0.6305293440818787,-0.775793194770813,0.005617879331111908,0.007360339164733887,0.006246685981750488,0.8171967592142794,0.29651100996260515,0.1555140645358548,0.4691333591634993
1715269849522323700,2.87032373046875,0.02251383662223816,0.024045607075095177,-0.07782662659883499,-0.0234517864882946,-0.6308526992797852,-0.7755481600761414,0.0067891925573349,0.015862464904785156,0.006703555583953857,0.8172876130616366,0.2965750180743461,0.1557856648015893,0.46884457260730605
1715269849532313600,2.880313720703125,0.033981941640377045,0.018663624301552773,-0.07978058606386185,-0.022782543674111366,-0.6314074993133545,-0.775116503238678,0.008149378001689911,0.020979583263397217,0.0057378411293029785,0.81735703618121,0.29674604720332826,0.15615230721726325,0.46849304513597095
1715269849542303500,2.890303466796875,0.020871251821517944,0.02399553917348385,-0.08006787300109863,-0.022083573043346405,-0.6320056915283203,-0.7746490836143494,0.008014976978302002,0.017122209072113037,0.0015777945518493652,0.8174210225919438,0.2969334464446241,0.15654388714164427,0.46813201016589223
1715269849552293600,2.900293701171875,-0.010485073551535606,0.028847552835941315,-0.07752136141061783,-0.021412119269371033,-0.6324067711830139,-0.7743405699729919,0.00813698023557663,0.006338596343994141,-0.0015078186988830566,0.8175142996120819,0.29702199714342875,0.15686829113822706,0.4678041751269984
1715269849562283500,2.910283447265625,-0.049612339586019516,0.04047544673085213,-0.081394724547863,-0.020746666938066483,-0.6324464678764343,-0.7743262052536011,0.004831761121749878,-0.008727848529815674,-0.0036431550979614258,0.8176582246174025,0.29691549920092397,0.1570925685279839,0.4675450231289841
1715269849572273400,2.9202734375,-0.09691700339317322,0.042751118540763855,-0.08529465645551682,-0.0200408473610878,-0.6320609450340271,-0.7746595740318298,0.000814780592918396,-0.017170071601867676,-0.008009493350982666,0.8178865764789119,0.2965749741383552,0.15720530351016726,0.46732375813738525
1715269849582263600,2.930263671875,-0.12692491710186005,0.05631859228014946,-0.09442085027694702,-0.019171908497810364,-0.6312779188156128,-0.7753197550773621,-0.0012901201844215393,-0.017953038215637207,-0.0055335164070129395,0.8182023842472046,0.2959853500873926,0.15726664788256023,0.4671241333830877
1715269849592253700,2.940253662109375,1.78476881980896,-0.6733206510543823,0.14922402799129486,-0.021255914121866226,-0.6353871822357178,-0.7719010710716248,0.002197699621319771,-0.009525537490844727,-0.010127007961273193,0.8177260592600586,0.2988206618303995,0.15733933657525642,0.46612718057996383
1715269849602243600,2.95024365234375,0.7854212522506714,-0.32230594754219055,-0.0019060290651395917,-0.025116220116615295,-0.64693683385849,-0.7621299028396606,0.023544572293758392,0.035929083824157715,-0.0010536909103393555,0.8152277027449396,0.305928848066079,0.1591935675846476,0.4652621607111339
1715269849612233700,2.960233642578125,0.22777080535888672,-0.019709065556526184,-0.3717024624347687,-0.024847544729709625,-0.6498284339904785,-0.7596747279167175,-0.024667218327522278,0.16272205114364624,-0.03420954942703247,0.8153944917323355,0.3076630739431177,0.15970618571220505,0.4636478307729599
1715269849622223600,2.9702236328125,0.15371419489383698,0.014094971120357513,-0.12792621552944183,-0.02345113269984722,-0.6517109274864197,-0.7581048607826233,-0.06956644356250763,0.019463002681732178,0.08543640375137329,0.8155655621462682,0.30849071754109064,0.16056478874352975,0.4624990965182094
1715269849632213500,2.980213623046875,-0.43120038509368896,0.0677771121263504,-0.2363099455833435,-0.022233251482248306,-0.6507160663604736,-0.7589955925941467,0.0732281282544136,-0.14896655082702637,0.03502708673477173,0.8161200786108072,0.3077518758495078,0.1605957200459558,0.4620021133368258
1715269849642203600,2.99020361328125,-0.7727165818214417,0.263815313577652,-0.3877832293510437,-0.018933523446321487,-0.6460249423980713,-0.7630814909934998,0.061505548655986786,-0.10432606935501099,0.013340890407562256,0.8176811233025792,0.3045686102509642,0.16030354714268946,0.4614524981781723
1715269849652193500,3.000193603515625,-0.8266432285308838,0.3013666868209839,-0.3261035978794098,-0.014365436509251595,-0.6399040222167969,-0.7683205604553223,-0.05101846903562546,-0.025897979736328125,0.049128055572509766,0.8195039208945936,0.300300281053092,0.16018572368227563,0.46105700022567503
1715269849662183400,3.010183349609375,-0.7188559174537659,0.2867928147315979,-0.1742575615644455,-0.01059265248477459,-0.6338649392127991,-0.7733712196350098,-0.036068715155124664,-0.017105519771575928,-0.009557187557220459,0.8210245611296813,0.2962170963901896,0.15990568670734365,0.4610902748388029
1715269849672173600,3.020173583984375,-0.2885676622390747,0.38814446330070496,0.14429645240306854,-0.00792661216109991,-0.6298426389694214,-0.7766823172569275,0.008445419371128082,0.023244738578796387,-0.02181011438369751,0.8216045308760505,0.29332339518790806,0.16006319767374877,0.46185185687987407
1715269849682163500,3.03016357421875,0.17299793660640717,0.21572956442832947,0.03970985859632492,-0.006548264529556036,-0.6295345425605774,-0.7769448757171631,-0.04891742765903473,0.08880883455276489,-0.036684274673461914,0.8211301558250748,0.29261489942332153,0.16094741533759815,0.4628366797970006
1715269849692153600,3.040153564453125,0.22372262179851532,0.06841999292373657,-0.17353610694408417,-0.0049489932134747505,-0.6312476992607117,-0.7755655646324158,-0.09571323543787003,0.1402198076248169,-0.03606468439102173,0.8208994531277048,0.2931346000683181,0.1621398288244355,0.46250082195621817
1715269849702143700,3.050143798828125,0.08528374880552292,0.048459071666002274,-0.08667191118001938,-0.0037367152981460094,-0.6324731111526489,-0.7745733261108398,0.006956323981285095,0.013301968574523926,-0.020104408264160156,0.8209446262238191,0.2935642404528719,0.16289068640011856,0.4618838831416443
1715269849712133600,3.060133544921875,-0.003373154439032078,0.10060536861419678,-0.06741353124380112,-0.002778687747195363,-0.6327117681503296,-0.7743824124336243,0.10382240265607834,-0.032769858837127686,0.011244595050811768,0.82098975177725,0.29347268296861373,0.1633480364133923,0.4617002384625603
1715269849722123500,3.07012353515625,0.022421371191740036,0.11296695470809937,-0.07821305096149445,-0.0014767178799957037,-0.6327499747276306,-0.7743547558784485,0.035580120980739594,-0.010179102420806885,0.020829975605010986,0.8210704867647435,0.29318480921443996,0.1639063175357316,0.46154164412255183
1715269849732113700,3.08011376953125,0.08759930729866028,0.08830314874649048,-0.03088202141225338,-0.0003538635210134089,-0.6331823468208313,-0.7740025520324707,-0.053326547145843506,0.003543674945831299,0.019592761993408203,0.8210264080282998,0.2931352924024182,0.1645309200436629,0.4614291269486271
1715269849742103600,3.090103515625,0.09072043001651764,0.05380083993077278,-0.0330202691257,0.00032727819052524865,-0.6338919997215271,-0.7734214663505554,-0.03797069936990738,0.0350913405418396,0.015578508377075195,0.8208962352084759,0.29333611666481874,0.1650550683995166,0.46134600367394574
1715269849752093400,3.100093505859375,0.06586062163114548,0.027885351330041885,-0.043664392083883286,0.0008733056602068245,-0.6345054507255554,-0.7729179263114929,0.008190423250198364,0.036208271980285645,0.011595964431762695,0.8208431673115368,0.29354242256753527,0.1654505088386013,0.46116764212845246
1715269849762083600,3.11008349609375,0.01614142395555973,0.018547777086496353,-0.016199281439185143,0.00122782401740551,-0.6348070502281189,-0.7726697325706482,0.022194422781467438,0.0047258734703063965,0.011332452297210693,0.82083727557944,0.29362894312127585,0.16567187907990186,0.4610435892008243
1715269849772073500,3.120073486328125,-0.0044847577810287476,0.016571443527936935,0.003727289382368326,0.001379688153974712,-0.6348457932472229,-0.772637665271759,0.01221589744091034,-0.003520965576171875,0.011132538318634033,0.8208185697082963,0.29360602400149116,0.16576091328023243,0.46105931288662794
1715269849782063400,3.1300634765625,0.010167581029236317,0.013071252033114433,0.01029930543154478,0.001438288134522736,-0.6348597407341003,-0.7726260423660278,-0.0021706968545913696,0.012072265148162842,0.013348758220672607,0.8207838092918354,0.2935866533758874,0.16581267132446786,0.46111500760301644
1715269849792053800,3.1400537109375,0.02133927494287491,-0.017113814130425453,0.019142331555485725,0.001321809133514762,-0.634996235370636,-0.7725141644477844,-0.0015659406781196594,0.026674091815948486,0.015678226947784424,0.8207293312293763,0.29367910475203224,0.16581768913022282,0.46115142128477443
1715269849802043600,3.150043701171875,0.011024106293916702,-0.03970913961529732,0.0248093381524086,0.0009601571946404874,-0.6351080536842346,-0.772422730922699,0.010300837457180023,0.025351524353027344,0.022193849086761475,0.8206799539332673,0.29382247697819824,0.16570152167787117,0.46118949095363654
1715269849812033500,3.160033447265625,-0.018514078110456467,-0.03859114274382591,0.03351600840687752,0.0002675179566722363,-0.635104775428772,-0.7724259495735168,0.01770734041929245,0.009845376014709473,0.02622544765472412,0.8206304617394864,0.2939829113643929,0.16541182129309234,0.4612792616967795
1715269849822023700,3.170023681640625,-0.02899010293185711,-0.050878170877695084,0.042880214750766754,-0.00045679116738028824,-0.6348583102226257,-0.7726284861564636,0.0164327472448349,-0.0017536282539367676,0.027084052562713623,0.820614140865896,0.2940178763545317,0.16504320295080968,0.4614181404772668
1715269849832013600,3.180013671875,-0.030306236818432808,-0.06588001549243927,0.04612208157777786,-0.0011539387051016092,-0.6345536708831787,-0.7728779911994934,0.015970230102539062,0.00038313865661621094,0.025304138660430908,0.8206198821451441,0.29401904746326474,0.16466273898559522,0.461543182180232
1715269849842003500,3.19000341796875,-0.025028541684150696,-0.08320841193199158,0.048405811190605164,-0.0019289847696200013,-0.6343398690223694,-0.7730519771575928,0.021155066788196564,0.00897359848022461,0.019740819931030273,0.8206260450081532,0.2940952455777598,0.16426201979480895,0.46162658554591074
1715269849851993600,3.19999365234375,-0.019446291029453278,-0.08846096694469452,0.048107802867889404,-0.002782601397484541,-0.6342252492904663,-0.7731432914733887,0.023626111447811127,0.008279204368591309,0.016200542449951172,0.8206164322212371,0.2942460308349154,0.16385243993449597,0.4616929070511377
1715269849861983500,3.2099833984375,-0.02303047850728035,-0.08315780758857727,0.04505741968750954,-0.0037255785427987576,-0.634078323841095,-0.7732598781585693,0.02292114496231079,0.0016167163848876953,0.013875722885131836,0.8206031885711861,0.294399672773672,0.1633980049989759,0.4617794304230826
1715269849871973600,3.2199736328125,-0.026368483901023865,-0.0761270672082901,0.04361185431480408,-0.004587722942233086,-0.6338203549385071,-0.7734666466712952,0.017862878739833832,-0.00695723295211792,0.006132721900939941,0.8206195638463081,0.2944765235586372,0.16294245488342618,0.4618623787592314
1715269849881963500,3.229963623046875,-0.025694971904158592,-0.06496389210224152,0.04116440936923027,-0.005251712165772915,-0.6336007714271545,-0.773642361164093,0.01385767012834549,-0.012441158294677734,0.00014388561248779297,0.820636273331062,0.29452478459894144,0.16258525673939397,0.46192790001611994
1715269849891953400,3.239953369140625,-0.0010519432835280895,-0.04771513119339943,0.03424285352230072,-0.005691196769475937,-0.6335808038711548,-0.7736555933952332,0.010436683893203735,-0.00628131628036499,-0.0022537708282470703,0.8206179245630031,0.2946213636101173,0.1623897839433359,0.4619677415808932
1715269849901943800,3.24994384765625,0.019055720418691635,-0.04689487814903259,0.026919959113001823,-0.005958090536296368,-0.6338513493537903,-0.7734319567680359,0.001990810502320528,-0.0003497004508972168,-0.009954214096069336,0.8205644148151379,0.29483406730252043,0.16234808429647316,0.46194155024551137
1715269849911933700,3.25993359375,0.02497672848403454,-0.035471782088279724,0.01631977967917919,-0.006086722947657108,-0.6342083811759949,-0.773138165473938,-0.005525208543986082,0.0051190853118896484,-0.013620197772979736,0.8205048654809719,0.2950601727577367,0.16238965645984169,0.46188837841947494
1715269849921923600,3.269923583984375,0.03069506771862507,-0.018131941556930542,0.0076341466046869755,-0.005926635582000017,-0.6345062255859375,-0.772895097732544,-0.005227535963058472,0.005142152309417725,-0.011635541915893555,0.8204792019442528,0.29518723949074455,0.16253292541685643,0.4618024917475435
1715269849931913700,3.279913818359375,0.007292272988706827,-0.0014847870916128159,0.003985082730650902,-0.005569177214056253,-0.6347067356109619,-0.7727330923080444,-0.006683625280857086,-0.011045277118682861,-0.016161561012268066,0.8204776290813437,0.2952130597551846,0.16273508473420728,0.461717666455566
1715269849941903600,3.289903564453125,-0.02151130512356758,0.01667157933115959,-0.005657557398080826,-0.005077801179140806,-0.6347396373748779,-0.7727094292640686,-0.00763276219367981,-0.021189987659454346,-0.013209700584411621,0.8205061631577837,0.29511427452634476,0.1629504081339907,0.4616540998531853
1715269849951893500,3.2998935546875,-0.04287571460008621,0.027228882536292076,-0.01740768924355507,-0.004527239128947258,-0.6346196532249451,-0.7728113532066345,-0.0060318331234157085,-0.02388864755630493,-0.007431507110595703,0.8205609478981669,0.29491796568682305,0.1631493422150034,0.46161175085914485
1715269849961883600,3.309883544921875,-0.0652434453368187,0.03067874163389206,-0.02463178150355816,-0.0039445203728973866,-0.6343164443969727,-0.7730634808540344,-0.007652148604393005,-0.029211997985839844,-0.008522212505340576,0.820659074600694,0.2946189709713632,0.16330315503455253,0.46157406601706946
1715269849971873500,3.31987353515625,-0.07237991690635681,0.04195616394281387,-0.030729355290532112,-0.0033538509160280228,-0.6338342428207397,-0.773461639881134,-0.0049927011132240295,-0.028076767921447754,-0.006476104259490967,0.8207933917832445,0.2942239508910533,0.1634057638506918,0.46155078861626153
1715269849981862700,3.329862548828125,-0.0647890567779541,0.050822626799345016,-0.03889034688472748,-0.0027765994891524315,-0.6332265734672546,-0.7739614844322205,-0.005249515175819397,-0.024244189262390137,-0.007837772369384766,0.8209536571623415,0.29376689613562296,0.16346332286544266,0.46153638918669054
1715269849991852500,3.3398525390625,-0.04980158433318138,0.04959357529878616,-0.04341026395559311,-0.002259250497445464,-0.6326415538787842,-0.7744414806365967,-0.009291641414165497,-0.01680302619934082,-0.00528264045715332,0.82110645105069,0.29333665245136137,0.16350190719883184,0.4615246505131588
1715269850001842400,3.349842529296875,-0.03310644254088402,0.04736211523413658,-0.052236977964639664,-0.0017276840517297387,-0.6322192549705505,-0.7747876048088074,-0.009762175381183624,-0.006971478462219238,-0.0025408267974853516,0.8212483731708639,0.2929963434774944,0.16358280500784791,0.46145952846700683
1715269850011833600,3.35983349609375,-0.019133102148771286,0.05396329239010811,-0.05794306471943855,-0.0011372914304956794,-0.6320350170135498,-0.7749390006065369,-0.010383084416389465,-0.0028222203254699707,-0.0010161399841308594,0.8213556214361027,0.2927707085828027,0.16375530121377627,0.46135073958553613
1715269850021823700,3.36982373046875,-0.016699666157364845,0.05365170165896416,-0.06427480280399323,-0.0004702093719970435,-0.6320067644119263,-0.7749627828598022,-0.01393408328294754,-0.0013093352317810059,0.002059340476989746,0.8214447901588849,0.2926120251285529,0.1640024959867592,0.46120490270864467
1715269850031813600,3.379813720703125,-0.010270263068377972,0.04476340115070343,-0.06448172777891159,0.00018260088108945638,-0.6320822834968567,-0.774901270866394,-0.013457737863063812,-0.0039803385734558105,0.007063806056976318,0.8215278255773091,0.2925170609437648,0.1642654074114572,0.4610237163465428
1715269850041802800,3.389802734375,-0.0012808684259653091,0.03874971717596054,-0.06950824707746506,0.0007549622096121311,-0.6322485208511353,-0.7747653126716614,-0.014381051063537598,-0.003493666648864746,0.009857475757598877,0.8216008154597394,0.2924938816034464,0.1645134821345449,0.4608196562686542
1715269850051792600,3.399792724609375,0.0013178440276533365,0.023268762975931168,-0.0724497064948082,0.0013049290282651782,-0.6324892640113831,-0.7745680212974548,-0.014671623706817627,0.00031763315200805664,0.012986600399017334,0.8216806092654424,0.29252368815948676,0.16476009795979987,0.4605702670182699
1715269850061782500,3.409782470703125,0.0046239979565143585,0.011550853960216045,-0.06583373993635178,0.001731397584080696,-0.6326971650123596,-0.7743973731994629,-0.01523541659116745,0.00002199411392211914,0.016279757022857666,0.8217719767802172,0.2925702054127413,0.16493629933024817,0.46031457558930566
1715269850071772700,3.419772705078125,-0.0019303075969219208,0.0006236374611034989,-0.061396386474370956,0.0019813464023172855,-0.6328250765800476,-0.7742922902107239,-0.01505812257528305,0.00018036365509033203,0.020370781421661377,0.8218734138124331,0.29261834990341246,0.16501016577455874,0.46007639351222684
1715269850081762600,3.429762451171875,-0.014197198674082756,-0.011872180737555027,-0.05882783606648445,0.0021111052483320236,-0.6327828764915466,-0.7743264436721802,-0.012654922902584076,-0.0005941987037658691,0.020694851875305176,0.8220054305746998,0.2926068804942191,0.16497880386603145,0.4598590430812735
1715269850091752400,3.43975244140625,-0.02879371866583824,-0.02335786074399948,-0.04810461774468422,0.00210676365531981,-0.632626473903656,-0.7744542360305786,-0.006852239370346069,-0.0011321306228637695,0.021036267280578613,0.8221558536490817,0.29256832714502995,0.1648534575247645,0.45965964458711916
1715269850101742600,3.44974267578125,-0.028279196470975876,-0.033189188688993454,-0.03793560341000557,0.0019242858979851007,-0.6324018239974976,-0.7746381759643555,-0.002580404281616211,0.002854645252227783,0.02184581756591797,0.8223055600019273,0.292534694638471,0.16463401650480075,0.4594919051939909
1715269850111732500,3.459732421875,-0.004003151785582304,-0.04605332016944885,-0.029497375711798668,0.001612065709196031,-0.6323449611663818,-0.7746853232383728,-0.001261107623577118,0.01090019941329956,0.020473957061767578,0.8224077226918233,0.29261794239454864,0.16441433206659584,0.45933472988652846
1715269850121722600,3.46972265625,0.01638856530189514,-0.06264561414718628,-0.02090734988451004,0.0011400693329051137,-0.6324872374534607,-0.7745699882507324,-0.0016588568687438965,0.018381953239440918,0.017047405242919922,0.8224663350025466,0.29284611501330204,0.16418332975741834,0.4591668455241643
1715269850131712800,3.479712646484375,0.03531724959611893,-0.07748660445213318,-0.017614617943763733,0.0005098621477372944,-0.632764458656311,-0.7743442058563232,0.0022214651107788086,0.027539849281311035,0.014334440231323242,0.8224956166320446,0.29318547543220963,0.1639212873756925,0.4589913913061061
1715269850141702700,3.48970263671875,0.04214730113744736,-0.08310854434967041,-0.011927969753742218,-0.0001983201946131885,-0.6331807971000671,-0.7740039229393005,0.0036773309111595154,0.02781885862350464,0.014406144618988037,0.822499636040821,0.2936193571295467,0.1636634047965667,0.4587989439497094
1715269850151692500,3.499692626953125,0.03290293365716934,-0.09372523427009583,-0.006909509655088186,-0.0009468146017752588,-0.6335718035697937,-0.7736833691596985,0.00438004732131958,0.012935757637023926,0.012559711933135986,0.8225124530404714,0.2940518230780076,0.16337638382626263,0.45860119529308063
1715269850161682700,3.5096826171875,0.01155354268848896,-0.09650930762290955,-0.009037974290549755,-0.001724999980069697,-0.633837878704071,-0.773464024066925,0.011246494948863983,-0.0002716183662414551,0.010051548480987549,0.8225491855047542,0.2944257911182324,0.16303815972301935,0.4584157010982218
1715269850171672600,3.519672607421875,-0.005347942467778921,-0.08911396563053131,-0.01548042707145214,-0.002391844755038619,-0.6339471936225891,-0.7733727097511292,0.01082996279001236,-0.00042176246643066406,0.01060110330581665,0.8226270274400693,0.2946915813025924,0.1626976698177543,0.4582262659989164
1715269850181662200,3.529662109375,-0.010026263073086739,-0.09174278378486633,-0.015944549813866615,-0.0029656370170414448,-0.6339412331581116,-0.7733755111694336,0.004918769001960754,0.0034480690956115723,0.007063925266265869,0.8227413470915892,0.29487719443358773,0.1623566367074884,0.45802231916123687
1715269850191652400,3.53965234375,-0.01683223806321621,-0.08580845594406128,-0.02421393059194088,-0.0035042818635702133,-0.6338478326797485,-0.7734498381614685,0.0018410759512335062,0.002713799476623535,0.004422187805175781,0.8228816227044586,0.2950103250688314,0.16199995506043163,0.4578108469667337
1715269850201642200,3.549642333984375,-0.0192054882645607,-0.07939876616001129,-0.02471846714615822,-0.003966329153627157,-0.6336650252342224,-0.7735974192619324,0.0017995908856391907,0.0032786130905151367,0.005241096019744873,0.8230362472661381,0.2950749873045665,0.161654074764782,0.4576136011240897
1715269850211632000,3.559632080078125,-0.017297863960266113,-0.07430998980998993,-0.02573978900909424,-0.004351552110165358,-0.6334248781204224,-0.7737919688224792,-0.00007348461076617241,0.007326245307922363,0.0025517940521240234,0.8232042928438147,0.29509013238385234,0.16132521690100077,0.4574174881738327
1715269850221622300,3.569622314453125,-0.020202308893203735,-0.06927129626274109,-0.03267539292573929,-0.004650391638278961,-0.6331961750984192,-0.7739774584770203,-0.001941397786140442,0.008806467056274414,-0.000009357929229736328,0.8233786456948707,0.29509182576408616,0.16103442241465316,0.4572051431097539
1715269850231612400,3.5796123046875,-0.0413624532520771,-0.06390981376171112,-0.039645686745643616,-0.004851634614169598,-0.632966160774231,-0.7741642594337463,0.0027306750416755676,0.002930760383605957,-0.004781603813171387,0.823569359666277,0.295073309245788,0.16077812650251594,0.4569635811712982
1715269850241602300,3.589602294921875,-0.06769834458827972,-0.043070580810308456,-0.05016849935054779,-0.004805393051356077,-0.632611095905304,-0.7744547724723816,0.006911113858222961,-0.007067859172821045,-0.009404420852661133,0.8238013214529281,0.29493024027936476,0.16058879460127554,0.4567044651091848
1715269850251592400,3.599592529296875,-0.08869311213493347,-0.021584196016192436,-0.052596237510442734,-0.004540214780718088,-0.6321041584014893,-0.7748701572418213,0.0047843679785728455,-0.015570461750030518,-0.008287191390991211,0.8240573894692278,0.2946483583315223,0.16045958882419634,0.45646959693570577
1715269850261582300,3.609582275390625,-0.08931293338537216,-0.01661180891096592,-0.0549452118575573,-0.0042688241228461266,-0.6314725875854492,-0.7753864526748657,0.0003625829704105854,-0.01875019073486328,-0.009998619556427002,0.8243199864144812,0.2942926630905516,0.1603078054110369,0.4562782459342578
1715269850271572200,3.619572265625,-0.07467087358236313,-0.006189793348312378,-0.05515480414032936,-0.00397229241207242,-0.630890965461731,-0.775861382484436,0.0024006441235542297,-0.011290431022644043,-0.010576605796813965,0.8245676277194884,0.29395533497209647,0.16018607362321502,0.45609104812516504
1715269850281562400,3.629562255859375,-0.06290066242218018,0.0024337880313396454,-0.06026168167591095,-0.00360295781865716,-0.6304181218147278,-0.7762473821640015,0.005998596549034119,0.0000317692756652832,-0.00997692346572876,0.8247944376922508,0.2936572338287916,0.16013033628675266,0.4558923606677593
1715269850291552300,3.63955224609375,-0.05697140097618103,0.0048596616834402084,-0.06271711736917496,-0.003217441961169243,-0.6299658417701721,-0.7766162157058716,0.007611982524394989,0.002600729465484619,-0.009760677814483643,0.8250164190482712,0.29336566243378204,0.1600889333994071,0.455693139019047
1715269850301542400,3.64954248046875,-0.06611302495002747,0.008074097335338593,-0.06221158057451248,-0.0028178170323371887,-0.6294629573822021,-0.7770254611968994,0.008997634053230286,-0.002785027027130127,-0.009641408920288086,0.8252441920399699,0.2930425711747206,0.16004166750044901,0.45550502983666485
1715269850311532300,3.6595322265625,-0.07771428674459457,0.018089979887008667,-0.06502360850572586,-0.0023204267490655184,-0.6288956999778748,-0.7774862051010132,0.010300785303115845,-0.007197439670562744,-0.007395386695861816,0.8254864431094533,0.292661274539976,0.16001959283483094,0.45531892850871036
1715269850321522200,3.669522216796875,-0.07786118239164352,0.029139434918761253,-0.06440375745296478,-0.0016591680468991399,-0.6283376216888428,-0.7779390215873718,0.011119626462459564,-0.006305992603302002,-0.005584537982940674,0.8257243132604654,0.2922421758120079,0.16007811725967241,0.45513614548912124
1715269850331512600,3.6795126953125,-0.06460955739021301,0.0306174885481596,-0.06088732182979584,-0.0010048042749986053,-0.6278917789459229,-0.7783000469207764,0.009992241859436035,-0.004432499408721924,-0.009877443313598633,0.8259295731825579,0.29188069025185837,0.16017375614365648,0.4549620740255259
1715269850341502500,3.68950244140625,-0.025852205231785774,0.03176131844520569,-0.05672473460435867,-0.0004384731291793287,-0.627670407295227,-0.7784790992736816,0.010875485837459564,0.0030976533889770508,-0.01311635971069336,0.8260729508264697,0.2916542295923615,0.1603068048887462,0.45480002844135664
1715269850351492400,3.699492431640625,0.006732369773089886,0.03026142530143261,-0.051498547196388245,0.00011049750173697248,-0.6276674866676331,-0.7784816026687622,0.00925840437412262,0.009228706359863281,-0.015219569206237793,0.8261693908306851,0.29154607800567134,0.16049949304889802,0.4546263168964406
1715269850361482500,3.709482421875,0.030126482248306274,0.0303245410323143,-0.04132800176739693,0.0006502682226710021,-0.6277821063995361,-0.7783889174461365,0.010885387659072876,0.014210879802703857,-0.016426146030426025,0.8262272741956292,0.29149702591454135,0.1607328130615801,0.454470159584316
1715269850371472400,3.719472412109375,0.044878266751766205,0.037328124046325684,-0.043244145810604095,0.0012414162047207355,-0.6280244588851929,-0.7781926393508911,0.014002121984958649,0.01806962490081787,-0.014699816703796387,0.8262604456357703,0.2915025418443322,0.16102776147720277,0.454301911144495
1715269850381462300,3.729462158203125,0.051621973514556885,0.03626392409205437,-0.04185843840241432,0.0018403588328510523,-0.628374457359314,-0.7779088616371155,0.009649515151977539,0.01471167802810669,-0.013106763362884521,0.8262659188482184,0.29156084213234384,0.16136249990211415,0.45413558930092357
1715269850391452400,3.739452392578125,0.05241559445858002,0.03165079653263092,-0.03387002274394035,0.0023984084837138653,-0.6287965178489685,-0.7775661945343018,0.009732335805892944,0.009930551052093506,-0.008337676525115967,0.826251866072955,0.2916659107838954,0.1617031039408291,0.45397244653441426
1715269850401442300,3.7494423828125,0.043465349823236465,0.020830905064940453,-0.02637801505625248,0.002883242443203926,-0.6291797757148743,-0.7772544622421265,0.013382628560066223,0.0036609768867492676,-0.004071831703186035,0.8262380431497335,0.2917667616632929,0.16200286549390086,0.45382588697401377
1715269850411432200,3.75943212890625,0.028124744072556496,0.018681999295949936,-0.0229614470154047,0.0032702626194804907,-0.6294033527374268,-0.7770718932151794,0.015681162476539612,0.001992464065551758,-0.004559516906738281,0.8262441306382515,0.2918042281796398,0.16221699494341818,0.45371415435787404
1715269850421422300,3.76942236328125,0.030423849821090698,0.014219873584806919,-0.013190707191824913,0.0036143960896879435,-0.6295187473297119,-0.7769768834114075,0.015153922140598297,0.004305124282836914,-0.0036169886589050293,0.8262612287891064,0.2917918208071208,0.16238561337067667,0.453630735770499
1715269850431412200,3.779412109375,0.035032182931900024,0.01488939207047224,-0.002180134877562523,0.0038571248296648264,-0.6295899152755737,-0.7769180536270142,0.013125911355018616,0.0055512189865112305,-0.0039046406745910645,0.8262578892620632,0.29177146377460905,0.16251269014922973,0.45360443492881275
1715269850441402400,3.78940234375,0.045692235231399536,0.008561189286410809,0.0007757075363770127,0.0040424116887152195,-0.6296624541282654,-0.7768583297729492,0.009965166449546814,0.01128476858139038,-0.0036287307739257812,0.8262477370243841,0.2917641306831042,0.1626177235271331,0.45359009620599056
1715269850451392500,3.799392578125,0.0481996014714241,0.0033089027274399996,0.012347409501671791,0.004191787447780371,-0.6297900080680847,-0.7767542004585266,0.009007073938846588,0.01734793186187744,-0.0026342272758483887,0.8262189878389263,0.29179220604205974,0.162727433274663,0.4535851158165476
1715269850461382400,3.80938232421875,0.03668739274144173,0.0029629580676555634,0.013144759461283684,0.0042236195877194405,-0.6298989057540894,-0.7766656875610352,0.01057741791009903,0.01599198579788208,-0.0030584335327148438,0.8261748102378045,0.29183354455653315,0.16278925585809487,0.4536167117580438
1715269850471372300,3.819372314453125,0.03682374581694603,0.006650903727859259,0.01679408736526966,0.004252617247402668,-0.6300420165061951,-0.7765494585037231,0.008610546588897705,0.017355799674987793,-0.0035103559494018555,0.8261137393150086,0.29188999775186497,0.16286651522294388,0.4536639083571673
1715269850481362400,3.829362548828125,0.04625874012708664,0.006233585998415947,0.022036254405975342,0.004341595806181431,-0.6302974224090576,-0.7763416171073914,0.006736293435096741,0.018328428268432617,-0.005778074264526367,0.8260297723493317,0.29199035636089216,0.1630055639422926,0.45370214526110436
1715269850491352300,3.839352294921875,0.05330120399594307,0.012652869336307049,0.0264270082116127,0.004430667031556368,-0.6306270360946655,-0.7760733962059021,0.005869023501873016,0.016796410083770752,-0.007724761962890625,0.8259165897483587,0.29212465823172645,0.1631762091493894,0.4537604100503532
1715269850501342200,3.84934228515625,0.05473153293132782,0.013194023631513119,0.023165501654148102,0.004541085101664066,-0.6309905052185059,-0.775777280330658,0.004751525819301605,0.017526090145111084,-0.004358768463134766,0.8257947747755651,0.2922707561185714,0.16336815635897947,0.45381901772234695
1715269850511332400,3.859332275390625,0.04136326536536217,0.00934682134538889,0.02935894951224327,0.004632268566638231,-0.6312862634658813,-0.775536060333252,0.0037448182702064514,0.014526009559631348,0.0009999275207519531,0.8256813932054202,0.2923842242728606,0.16353417843137194,0.45389245711675696
1715269850521322200,3.869322265625,0.011248292401432991,0.014721347019076347,0.0257034283131361,0.004640783183276653,-0.6313661336898804,-0.775471031665802,0.0044229477643966675,0.005358994007110596,0.002247154712677002,0.8256061911068583,0.29240288493597555,0.16360023293577597,0.4539933783134745
1715269850531312000,3.87931201171875,-0.016874955967068672,0.022716423496603966,0.026086922734975815,0.004728551954030991,-0.631178081035614,-0.7756235003471375,0.005677953362464905,-0.004884541034698486,0.0066568851470947266,0.8255717668383862,0.29225530080160494,0.1636309136033034,0.4541398771584193
1715269850541302500,3.889302490234375,-0.02301865443587303,0.026383062824606895,0.023487145081162453,0.004895816557109356,-0.6308643221855164,-0.7758777141571045,0.0026725525967776775,-0.010874569416046143,0.010054409503936768,0.8255635195000229,0.2920214846335286,0.16366001368853275,0.4542947543128629
1715269850551292400,3.89929248046875,-0.01832323521375656,0.02676602639257908,0.019629288464784622,0.005053593311458826,-0.6305492520332336,-0.7761328220367432,0.000058107078075408936,-0.008733034133911133,0.008661508560180664,0.8255593954750724,0.29179083451074367,0.16368172197607964,0.4544426045608536
1715269850561282300,3.9092822265625,-0.00810612365603447,0.031668372452259064,0.011077812872827053,0.0052694883197546005,-0.6302804946899414,-0.776349663734436,0.0011697262525558472,-0.002913534641265869,0.007947564125061035,0.8255618742931373,0.2915756036473373,0.16373406774311702,0.4545574391802437
1715269850571272400,3.9192724609375,-0.0008316999301314354,0.03754277154803276,0.007544331718236208,0.005545951891690493,-0.6300819516181946,-0.7765089273452759,-0.0001901090145111084,0.00274735689163208,0.008579850196838379,0.8255558120031534,0.29138395276997237,0.16383204540749408,0.454656201806577
1715269850581262300,3.929262451171875,-0.0015470250509679317,0.03909912332892418,0.006228995975106955,0.005848454777151346,-0.6299319863319397,-0.7766282558441162,-0.0019879788160324097,0.002460002899169922,0.010698139667510986,0.8255407856741988,0.2912117233264699,0.16395606499735357,0.4547488327036386
1715269850591252200,3.939252197265625,-0.01616724580526352,0.031902462244033813,-0.0012366435257717967,0.00615024846047163,-0.6297885775566101,-0.7767422795295715,-0.0014657974243164062,-0.002230525016784668,0.011681854724884033,0.8255367614340634,0.29104742966858405,0.16407389727645283,0.4548190296878548
1715269850601242400,3.949242431640625,-0.037298522889614105,0.03256798908114433,-0.004775918088853359,0.006448119413107634,-0.6295768022537231,-0.7769114971160889,0.0006930003874003887,-0.0062721967697143555,0.014796078205108643,0.8255582706597293,0.29085254331227617,0.16416163221692895,0.4548728778507602
1715269850611232300,3.959232177734375,-0.06690382212400436,0.03374430537223816,-0.004465126898139715,0.006765708327293396,-0.6292648315429688,-0.7771615982055664,0.00003971904516220093,-0.011390745639801025,0.015946388244628906,0.8256054484885721,0.29060186619796186,0.1642247570843333,0.4549248141860681
1715269850621222100,3.96922216796875,-0.07988949865102768,0.027334876358509064,-0.011550066992640495,0.007069910876452923,-0.628839373588562,-0.7775030732154846,0.0014139856211841106,-0.01579868793487549,0.016638875007629395,0.8256820178413087,0.2902975246250621,0.16424313183210013,0.45497337712706293
1715269850631212300,3.97921240234375,-0.0834626629948616,0.032037489116191864,-0.011857662349939346,0.007345011457800865,-0.6283287405967712,-0.7779133319854736,0.0013372451066970825,-0.018705010414123535,0.018193483352661133,0.8257764675234304,0.2899560922807195,0.1642218224913887,0.45502755136806056
1715269850641202400,3.989202392578125,-0.057758789509534836,0.03548761084675789,-0.017218606546521187,0.0076797837391495705,-0.6278614401817322,-0.7782872319221497,-0.0008896142244338989,-0.008323311805725098,0.017255187034606934,0.8258652037396017,0.2896236460593537,0.16423920434202618,0.45507179367578443
1715269850651192300,3.9991923828125,-0.01734931580722332,0.024590222164988518,-0.021555563434958458,0.00801203865557909,-0.6276223063468933,-0.7784767746925354,-0.00366327166557312,0.00806969404220581,0.0131416916847229,0.8259249112728544,0.2894177954603591,0.16431357445581982,0.45506757828135513
1715269850661182500,4.009182373046875,0.008892619051039219,0.01679248735308647,-0.018096717074513435,0.008239726535975933,-0.6276653409004211,-0.7784397006034851,-0.005691498517990112,0.018076717853546143,0.008618533611297607,0.8259397890565292,0.2893910437502583,0.16441710241852714,0.4550201751765659
1715269850671172400,4.01917236328125,0.011168822646141052,0.015414034947752953,-0.014922494068741798,0.008421853184700012,-0.6278573274612427,-0.7782829403877258,-0.0037984326481819153,0.0141945481300354,0.00826340913772583,0.8259277166524277,0.28945513209959095,0.16454258973395058,0.45495603365041193
1715269850681162200,4.029162353515625,0.0058731809258461,0.013634511269629002,-0.007359383627772331,0.008577226661145687,-0.6280689835548401,-0.7781103849411011,-0.0001543695107102394,0.005327284336090088,0.00833505392074585,0.8258997509176453,0.28953216265079135,0.16466915117652006,0.4549118007508618
1715269850691152400,4.03915234375,0.005994088482111692,0.011097850278019905,-0.005127921234816313,0.008690452203154564,-0.6282970905303955,-0.7779250144958496,-0.0003591477870941162,-0.002989530563354492,0.004762172698974609,0.8258610107131188,0.2896257593039,0.1647859756544773,0.4548804182588948
1715269850701142300,4.049142333984375,0.002448941580951214,0.008758263662457466,-0.0007686594035476446,0.008781305514276028,-0.6285358667373657,-0.7777310609817505,-0.005927905440330505,-0.006779074668884277,0.0027066469192504883,0.8258143753081407,0.289728673835089,0.1648992803745139,0.45485847770524346
1715269850711132200,4.059132080078125,0.007590706460177898,0.010297037661075592,0.002114212606102228,0.00883148331195116,-0.6288036704063416,-0.7775139808654785,-0.006237484514713287,-0.0032306313514709473,0.0034813880920410156,0.8257536062655607,0.2898541808864431,0.16500777462173108,0.45484947983155294
1715269850721122300,4.069122314453125,0.011251221410930157,0.003798125311732292,0.001249883440323174,0.00885462574660778,-0.6290242075920105,-0.7773352861404419,-0.0034530097618699074,0.002803504467010498,0.00197523832321167,0.8256996196306101,0.28996074934386035,0.16509121854901976,0.4548492980911693
1715269850731112200,4.0791123046875,0.019579991698265076,-0.004681379534304142,0.0016291175270453095,0.008797681890428066,-0.6291360259056091,-0.7772454619407654,-0.001748114824295044,0.00842374563217163,0.0027551651000976562,0.8256710722010038,0.2900317753261833,0.1651024676695708,0.45485185270682504
1715269850741102300,4.089102294921875,0.0225849412381649,-0.007053190842270851,-0.001984259346500039,0.00867699645459652,-0.6291872262954712,-0.7772054076194763,-0.0029549449682235718,0.008490145206451416,0.006071984767913818,0.8256595857628062,0.2900889444527673,0.1650627460062121,0.4548506330946359
1715269850751092500,4.099092529296875,0.006535136140882969,-0.009952840395271778,-0.005290040746331215,0.008566747419536114,-0.6292314529418945,-0.7771708369255066,-0.00446213036775589,0.005009651184082031,0.003519713878631592,0.8256566424179473,0.29014235906733904,0.16502121940110592,0.45483704186263396
1715269850761082400,4.109082275390625,-0.01392369344830513,-0.004709342494606972,-0.002699650824069977,0.008520876057446003,-0.6291853785514832,-0.7772085666656494,-0.00803259015083313,0.0014845728874206543,0.002779245376586914,0.8256798118168547,0.2901349072630528,0.1649771437745432,0.454815520658976
1715269850771072500,4.119072509765625,-0.029881620779633522,-0.0034938757307827473,-0.002182731404900551,0.008493448607623577,-0.6290457844734192,-0.7773218750953674,-0.010324493981897831,-0.0043465495109558105,0.004159092903137207,0.8257125795000015,0.2900701596981199,0.16491928459975588,0.4548182540134618
1715269850781062400,4.1290625,-0.036198001354932785,0.002240176312625408,-0.0052351136691868305,0.008454667404294014,-0.6288440227508545,-0.7774854898452759,-0.009980536997318268,-0.008378267288208008,-0.0001786947250366211,0.8257554976418062,0.28997476747365175,0.16483895136467133,0.45483039076830406
1715269850791052300,4.13905224609375,-0.024865716695785522,0.007317759096622467,-0.004660403355956078,0.008455688133835793,-0.6286623477935791,-0.777632474899292,-0.009661123156547546,-0.002883732318878174,-0.002045869827270508,0.8257917059989178,0.289878842456062,0.16478480033064075,0.45484546586821745
1715269850801042400,4.14904248046875,-0.015910517424345016,0.0037515200674533844,-0.00321723660454154,0.008472192101180553,-0.6285073757171631,-0.7777575254440308,-0.008655287325382233,0.002622365951538086,-0.004652142524719238,0.8258195795616148,0.2897920014293243,0.1647477817094683,0.4548636508644376
1715269850811032300,4.1590322265625,0.15220311284065247,-0.1724322885274887,0.020225239917635918,0.00770088005810976,-0.6288660764694214,-0.7774755358695984,-0.005717232823371887,0.004278063774108887,-0.0016687512397766113,0.8258241968010572,0.29020439550294225,0.16444955165083586,0.4547001385653314
1715269850821022200,4.169022216796875,0.22322019934654236,-0.15116775035858154,-0.0022029047831892967,0.0063652703538537025,-0.6302993893623352,-0.7763261198997498,0.007108248770236969,0.00763392448425293,0.012669503688812256,0.825655798108662,0.2913418110527142,0.16418555451965433,0.4543739172835265
1715269850831012400,4.179012451171875,0.2047399878501892,-0.10671480000019073,0.016739893704652786,0.005427764728665352,-0.6319224834442139,-0.7750126123428345,0.017704561352729797,0.028925657272338867,0.018405616283416748,0.8254388713027909,0.2924761843374893,0.1641687565298761,0.4540451425317692
1715269850841002200,4.189002197265625,0.16292862594127655,-0.11030180752277374,0.04813862964510918,0.004313082899898291,-0.6333475112915039,-0.7738555073738098,-0.028406701982021332,0.014389991760253906,0.02083432674407959,0.8251677998333914,0.29351893431522275,0.16406970796470657,0.4539008662159956
1715269850850992400,4.198992431640625,0.09238362312316895,-0.11625291407108307,0.012392083182930946,0.003136412240564823,-0.634332537651062,-0.7730540037155151,-0.007927663624286652,-0.007070660591125488,0.027707934379577637,0.8249910711047953,0.2943482433626112,0.16380511130395364,0.4537806868588467
1715269850860982500,4.208982421875,0.04556833952665329,-0.11832459270954132,-0.02772444300353527,0.0022228125017136335,-0.6348478198051453,-0.7726340889930725,0.021290995180606842,-0.02599513530731201,0.02280193567276001,0.8250042441696137,0.2948966984828878,0.16345917945212052,0.4535252896042416
1715269850870972400,4.218972412109375,0.0045279646292328835,-0.12584881484508514,-0.04307756572961807,0.0014553525252267718,-0.6349799633026123,-0.772527277469635,0.026788674294948578,-0.02873164415359497,0.01697307825088501,0.8251573355937597,0.29522748757269723,0.16302482768082865,0.45318766656330545
1715269850880962300,4.22896240234375,-0.026379242539405823,-0.12597930431365967,-0.0634227842092514,0.0008022182737477124,-0.634774386882782,-0.7726971507072449,0.023749180138111115,-0.018942713737487793,0.008063971996307373,0.8254145962924829,0.2953627915801801,0.16251847804503383,0.45281267179982904
1715269850890952400,4.238952392578125,-0.03432265296578407,-0.12237845361232758,-0.07666562497615814,0.0003098819579463452,-0.6344268918037415,-0.7729828357696533,0.010539121925830841,-0.00816655158996582,0.00781559944152832,0.8257437716664985,0.29539699441099476,0.16201601868152532,0.4523701319995157
1715269850900942300,4.2489423828125,-0.011616118252277374,-0.08774936199188232,-0.06662357598543167,0.00009197086910717189,-0.6342052817344666,-0.7731647491455078,0.006087847054004669,0.0007366538047790527,0.0055713653564453125,0.8260497656320969,0.2954285578585355,0.16167747087531403,0.45191180046697743
1715269850910932200,4.25893212890625,0.0011947520542889833,-0.042264971882104874,-0.05101718381047249,0.00021300047228578478,-0.6340546011924744,-0.7732882499694824,-0.0026543959975242615,0.017553746700286865,0.0035739541053771973,0.8262857725173846,0.29539137608061333,0.16155431221653443,0.45154848868278014
1715269850920922400,4.26892236328125,0.012238508090376854,0.00367961497977376,-0.020428381860256195,0.00003112179183517583,-0.6341211199760437,-0.7732337713241577,-0.027985215187072754,0.031581997871398926,0.006296515464782715,0.8263531085891174,0.2955018172896659,0.16143661470452753,0.45139515123489976
1715269850930912300,4.278912353515625,-0.015658371150493622,0.07367786765098572,0.0012617346365004778,0.0002971031644847244,-0.6343518495559692,-0.7730444073677063,-0.041678935289382935,0.01827824115753174,0.005969822406768799,0.8262975231471965,0.2955533468517453,0.16163542589028002,0.4513919463212036
1715269850940902100,4.288902099609375,-0.13320326805114746,0.19168893992900848,-0.006873423233628273,0.0015494580147787929,-0.6340771913528442,-0.7732682228088379,-0.03801795095205307,0.0024853944778442383,0.0037217140197753906,0.8262698820716241,0.29505925010373013,0.1621910476091551,0.4515664184246047
1715269850950892500,4.298892578125,-0.30273106694221497,0.33644023537635803,0.005441832356154919,0.0038211457431316376,-0.6326372623443604,-0.7744388580322266,-0.03682589530944824,-0.009299993515014648,-0.0043392181396484375,0.8263542520111476,0.2936449457431008,0.16295156135598024,0.452060028970516
1715269850960882400,4.30888232421875,-0.36310234665870667,0.1173475831747055,-0.03739531338214874,0.006140206474810839,-0.6300999522209167,-0.776489794254303,-0.04015204310417175,-0.03324538469314575,-0.008819043636322021,0.8266124129156834,0.2916248635892592,0.16343208638953344,0.45272164491077554
