time,seconds_elapsed,rotationRateX,rotationRateY,rotationRateZ,gravityX,gravityY,gravityZ,accelerationX,accelerationY,accelerationZ,quaternionW,quaternionX,quaternionY,quaternionZ
1715269874827483000,0.03848291015625,-0.0064139519818127155,-0.02606017142534256,0.005632714368402958,0.040977489203214645,-0.04083603620529175,-0.9983252286911011,0.013374567031860352,0.003207612782716751,0.0002326369285583496,0.9995811392891899,0.020426574050197707,0.02049733062525328,5.551115123125783e-17
1715269874837473000,0.04847314453125,0.00529591366648674,-0.03322034701704979,0.005272388458251953,0.04066396877169609,-0.0407760813832283,-0.9983404874801636,0.012467388063669205,0.0016370341181755066,-0.0022392868995666504,0.9995849753818566,0.02039618830958948,0.020340744178755116,0.00001558383125249696
1715269874847463000,0.058462890625,0.005387526471167803,-0.030784618109464645,0.005692902021110058,0.04045319929718971,-0.04076673835515976,-0.9983494281768799,0.010709773749113083,0.007746469229459763,-0.007708251476287842,0.9995871945085977,0.0203909933990649,0.020235753517699268,0.00003921695678110737
1715269874857453000,0.068453125,0.00008884817361831665,-0.02858724445104599,0.0070071713998913765,0.0403534360229969,-0.04083693027496338,-0.9983506202697754,0.012365937232971191,0.003071177750825882,-0.007234096527099609,0.9995874862234272,0.02042568202140151,0.020186268240222578,0.0000598989879735945
1715269874867443200,0.078443115234375,-0.019480325281620026,-0.023734964430332184,-0.000053667230531573296,0.04046613723039627,-0.040761712938547134,-0.998349130153656,0.010559506714344025,-0.009943496435880661,-0.010882437229156494,0.9995871236555478,0.020387922319839963,0.020242786513211666,0.00006673536909962419
1715269874877433000,0.08843310546875,-0.039920832961797714,-0.014498855918645859,0.001558676827698946,0.04066098481416702,-0.04030821472406387,-0.9983596205711365,0.005161408334970474,-0.012060198932886124,-0.01721954345703125,0.9995897999580994,0.020161148032292967,0.020340054233510964,0.000060426059282414624
1715269874887423000,0.098423095703125,-0.1031607836484909,-0.027398142963647842,0.0019480311311781406,0.04077950119972229,-0.039299797266721725,-0.9983949661254883,0.0007399171590805054,-0.01235145702958107,-0.019350945949554443,0.9995986159775829,0.019656357565130025,0.020399317346772906,0.00007014396046528537
1715269874897413000,0.1084130859375,-0.17291615903377533,-0.04394276440143585,0.010352235287427902,0.04070839658379555,-0.03767050430178642,-0.9984607100486755,0.002397935837507248,-0.007297400385141373,-0.018674910068511963,0.999615054162628,0.018840567493007013,0.020363830674307273,0.0000951580314213496
1715269874907405300,0.1184052734375,-0.24992413818836212,-0.044683657586574554,0.03842807561159134,0.04053384065628052,-0.03560385853052139,-0.9985436201095581,0.013925030827522278,-0.018778719007968903,-0.026831746101379395,0.9996357241553534,0.017803686110683874,0.02027845849370638,0.00023318132200689234
1715269874917395500,0.1283955078125,-0.3230169415473938,-0.06460356712341309,0.06288668513298035,0.04026829078793526,-0.032904185354709625,-0.9986469745635986,0.03215021640062332,-0.044137679040431976,-0.05599474906921387,0.9996617292338394,0.01645765904080743,0.020140958554491592,0
1715269874927385300,0.13838525390625,-0.36704885959625244,-0.05950068682432175,0.10272091627120972,0.0397503487765789,-0.0294383242726326,-0.9987758994102478,0.04377655312418938,-0.0539359375834465,-0.09143400192260742,0.9996938593748868,0.014715187792067827,0.019887536297212606,0.00042635107617217116
1715269874937376300,0.148376220703125,-0.29028022289276123,-0.04680433124303818,0.1114249899983406,0.039292823523283005,-0.026164764538407326,-0.9988850951194763,0.06506232917308807,-0.07538271695375443,-0.1112833023071289,0.999720779440933,0.01306634334554388,0.019664983449169934,0.0010011242270491216
1715269874947366400,0.158366455078125,-0.17107608914375305,-0.032649364322423935,0.1105586588382721,0.038902170956134796,-0.023956991732120514,-0.9989557862281799,0.09096567332744598,-0.08576919883489609,-0.1584538221359253,0.9997377404338397,0.011951222824483871,0.019474852154930205,0.0015613547695729757
1715269874957356500,0.1683564453125,-0.04090593755245209,0.002670809393748641,0.14793014526367188,0.03869068995118141,-0.023002948611974716,-0.9989864230155945,0.08499734848737717,-0.04647055268287659,-0.23453402519226074,0.9997441268406506,0.011461551466914004,0.019375653016493917,0.0022118141931504187
1715269876415907000,1.626906982421875,1.493296504020691,-0.826279878616333,-1.1881529092788696,-0.17801634967327118,-0.6936452984809875,-0.6979730129241943,-0.020851746201515198,-0.04919850826263428,-0.09377479553222656,0.5707615416063092,0.30899904939817335,0.23565456689672112,0.7233379413486878
1715269876425897200,1.636897216796875,1.363274335861206,-0.8061767220497131,-1.16871178150177,-0.17546211183071136,-0.7055633664131165,-0.6865808963775635,-0.038115426898002625,-0.038165390491485596,-0.10695213079452515,0.5737765638198826,0.31462460914983426,0.2402517279226887,0.7169873614598364
1715269876435888000,1.64688818359375,1.3168797492980957,-0.6728322505950928,-1.1275575160980225,-0.17231617867946625,-0.7166494727134705,-0.6758111715316772,-0.055741965770721436,-0.003794431686401367,-0.09223973751068115,0.5766388717540571,0.3196954255389029,0.24472277600477568,0.7109102544110317
1715269876445878000,1.6568779296875,1.366904377937317,-0.643523097038269,-1.0997899770736694,-0.16867655515670776,-0.7275434136390686,-0.6650030016899109,-0.08353625237941742,0.04369008541107178,-0.10812908411026001,0.5792280624108129,0.32452012255354595,0.24936959475565051,0.7049798329361784
1715269876455868200,1.6668681640625,1.4166970252990723,-0.5994616150856018,-1.0635169744491577,-0.16485975682735443,-0.7385069727897644,-0.6537802815437317,-0.10702160000801086,0.062145769596099854,-0.12362420558929443,0.5815420134835851,0.32937954853955537,0.2542026278376737,0.6990700794477673
1715269876465858300,1.6768583984375,1.4086047410964966,-0.5512964725494385,-1.0086803436279297,-0.16089066863059998,-0.7493810653686523,-0.6422944664955139,-0.10963265597820282,0.05083358287811279,-0.10425674915313721,0.5835299328589721,0.3341842352453232,0.2591788248368119,0.6932820584525321
1715269876475848200,1.68684814453125,1.3068208694458008,-0.5360085964202881,-0.9629562497138977,-0.1569320410490036,-0.7596088647842407,-0.6311630010604858,-0.10521422326564789,0.024791240692138672,-0.08390939235687256,0.5853348178413076,0.33874695235038066,0.26394888546090606,0.6877242548362348
1715269876485838000,1.696838134765625,1.1280092000961304,-0.5254896879196167,-0.9102674722671509,-0.15314549207687378,-0.7687066793441772,-0.6209964752197266,-0.10723073780536652,-0.0018776655197143555,-0.07909172773361206,0.5871200640608791,0.34290191245996104,0.2681790996712589,0.6824869478203619
1715269876495828200,1.706828125,0.9482797980308533,-0.49700799584388733,-0.9154448509216309,-0.1492731273174286,-0.7764495611190796,-0.6122448444366455,-0.1185494065284729,-0.013345599174499512,-0.06281900405883789,0.5891209986491457,0.3464492224983182,0.27175449576060134,0.6775389443630386
1715269876505818000,1.716818115234375,0.7649576663970947,-0.47615066170692444,-0.9241059422492981,-0.1450653225183487,-0.7830235958099365,-0.6048389673233032,-0.1362459659576416,-0.026256978511810303,-0.032154202461242676,0.5913974785874022,0.34936775045020835,0.27481390594347066,0.6728065572591763
1715269876515808000,1.72680810546875,0.6197430491447449,-0.4731343388557434,-0.9386851191520691,-0.14065973460674286,-0.7884778380393982,-0.5987634062767029,-0.13526521623134613,-0.04645276069641113,-0.022162199020385742,0.5939493520737023,0.3517197968297611,0.27732918329128825,0.6682858246580945
1715269876525798100,1.736798095703125,0.5008659362792969,-0.484513521194458,-0.9919837713241577,-0.1359156370162964,-0.7931450009346008,-0.5936731696128845,-0.11043775081634521,-0.05889064073562622,-0.016998469829559326,0.5968368420646393,0.35364727785299727,0.2794584163409448,0.663793870838644
1715269876535788000,1.7467880859375,0.3974706530570984,-0.4857289791107178,-1.0447933673858643,-0.13067136704921722,-0.7971522808074951,-0.5894685387611389,-0.09814965724945068,-0.055112242698669434,-0.01627451181411743,0.6000896585859183,0.355156190131516,0.2813002088869037,0.6592621427619474
1715269876545778000,1.75677783203125,0.3135584592819214,-0.4898046851158142,-1.0808101892471313,-0.1251077950000763,-0.8005790710449219,-0.5860216021537781,-0.09716722369194031,-0.03615206480026245,-0.020011425018310547,0.6036381511096389,0.35634319818175697,0.28285812997343385,0.6546999003058502
1715269876555768000,1.76676806640625,0.27597910165786743,-0.47107306122779846,-1.131791591644287,-0.11907713860273361,-0.8036226630210876,-0.5831049084663391,-0.08896143734455109,-0.02091670036315918,-0.023645341396331787,0.6074026363639655,0.35723034061681125,0.2843132808105404,0.6500881352387607
1715269876565759200,1.77675927734375,0.23262925446033478,-0.4684799313545227,-1.1548982858657837,-0.11261888593435287,-0.8064379692077637,-0.5804953575134277,-0.07608679682016373,-0.021320998668670654,-0.014307260513305664,0.6113122726659317,0.35790674379739623,0.2857535547694169,0.6454030300992019
1715269876575749000,1.7867490234375,0.19724206626415253,-0.4422592520713806,-1.1657121181488037,-0.10592109709978104,-0.8089175820350647,-0.5783019065856934,-0.06897537410259247,-0.013470232486724854,-0.022100627422332764,0.615311880253706,0.35836238340960724,0.28709834173446613,0.6407356899208672
1715269876585739000,1.796739013671875,0.1942010074853897,-0.4079042077064514,-1.1570565700531006,-0.09902599453926086,-0.8112339973449707,-0.5762754678726196,-0.06990429759025574,0.0180819034576416,-0.02736198902130127,0.6192633865469354,0.35866826881922814,0.2884776470847233,0.6361216217481982
1715269876595729200,1.806729248046875,0.198887437582016,-0.389326810836792,-1.1213765144348145,-0.0920819342136383,-0.8134397864341736,-0.5743139982223511,-0.0783437043428421,0.06871920824050903,-0.04915976524353027,0.6230920761899397,0.358890583284908,0.2898974598532284,0.6315957811174454
1715269876605719000,1.816718994140625,0.22960247099399567,-0.38509851694107056,-1.0804789066314697,-0.08536319434642792,-0.815655529499054,-0.5722054839134216,-0.07464069128036499,0.1249968409538269,-0.07711666822433472,0.6267172224253719,0.35919076324117694,0.29134043692696526,0.6271588533634368
1715269876615709200,1.826709228515625,0.25655046105384827,-0.3755817115306854,-1.0421626567840576,-0.07893168181180954,-0.8179070353507996,-0.5699102878570557,-0.05226360261440277,0.15848314762115479,-0.10996001958847046,0.6301473067787426,0.35961291335958046,0.29278561158639055,0.6227916060434278
1715269876625699000,1.836698974609375,0.25853586196899414,-0.34558969736099243,-0.9847630262374878,-0.07269617170095444,-0.820142388343811,-0.5675224661827087,-0.02975156158208847,0.17068231105804443,-0.15759015083312988,0.6333595547411218,0.3600662938820174,0.2942635539158418,0.618560312283924
1715269876635689000,1.84668896484375,0.2635229527950287,-0.29293662309646606,-0.896032989025116,-0.06680784374475479,-0.8222488760948181,-0.5651934146881104,-0.02331078052520752,0.176344096660614,-0.19670814275741577,0.6362657931948317,0.3604860839907199,0.2957246420422704,0.6146239884891239
1715269876645679400,1.856679443359375,0.3122137784957886,-0.2188546508550644,-0.8194169998168945,-0.061242155730724335,-0.8243956565856934,-0.5626910924911499,-0.020819827914237976,0.18503695726394653,-0.21324855089187622,0.6387512448671442,0.36091824075592627,0.29730872378797774,0.6110175964597728
1715269876655669200,1.866669189453125,0.3720918595790863,-0.20792797207832336,-0.7408075928688049,-0.056005313992500305,-0.8267779350280762,-0.559733510017395,-0.012247465550899506,0.19184428453445435,-0.2063489556312561,0.640811266382653,0.3614975022123457,0.29908660096274065,0.6076410468802675
1715269876665659100,1.8766591796875,0.42332255840301514,-0.2058379203081131,-0.6648430228233337,-0.05140148475766182,-0.8293531537055969,-0.5563552975654602,0.005975857377052307,0.1959453821182251,-0.18921935558319092,0.6425394676224961,0.3623594637817735,0.3008620244872809,0.6044176811090121
1715269876675649300,1.886649169921875,0.46911534667015076,-0.18761257827281952,-0.622663676738739,-0.04714926332235336,-0.8321507573127747,-0.5525413751602173,0.03590333089232445,0.1856967806816101,-0.15017133951187134,0.6439521911306829,0.363415490644049,0.30275154633084356,0.6013286712717887
1715269876685639200,1.89663916015625,0.4259556233882904,-0.20415666699409485,-0.5425502061843872,-0.04337717220187187,-0.834899365901947,-0.5486907362937927,0.06206898018717766,0.1395714282989502,-0.1000211238861084,0.6451732191125333,0.36457381635260705,0.30453336370896306,0.5984120273757444
1715269876695630000,1.906630126953125,0.36353635787963867,-0.20738175511360168,-0.47548431158065796,-0.04027979448437691,-0.837273120880127,-0.545299232006073,0.0801965743303299,0.08762389421463013,-0.061038970947265625,0.6462787828731948,0.3656964331072413,0.3059681500295447,0.5957964056045779
1715269876705620000,1.916619873046875,0.2805866301059723,-0.22342969477176666,-0.43105584383010864,-0.037665411829948425,-0.839198887348175,-0.5425187349319458,0.08968241512775421,0.05941355228424072,-0.019675791263580322,0.6473538485145953,0.36668042776439497,0.3070604077748771,0.593458024749466
1715269876715610000,1.926610107421875,0.23474396765232086,-0.256558358669281,-0.3896980881690979,-0.03554343432188034,-0.8407061696052551,-0.5403237342834473,0.08583620190620422,0.048698604106903076,0.00013244152069091797,0.6484704085127738,0.36757875507245547,0.3077726082809289,0.5913104154860566
1715269876725600300,1.936600341796875,0.23527659475803375,-0.2720097601413727,-0.36666229367256165,-0.033826351165771484,-0.842104971408844,-0.5382518768310547,0.08497361093759537,0.05063134431838989,0.0066817402839660645,0.6495513774394401,0.36854976305707354,0.3082939100671988,0.5892444701877446
1715269876735590100,1.946590087890625,0.2176463007926941,-0.27602261304855347,-0.35183173418045044,-0.032270658761262894,-0.843445897102356,-0.5362439751625061,0.07824519276618958,0.04748624563217163,-0.0030165910720825195,0.6506026149351066,0.3695365867365905,0.3087405212320278,0.5872293232522249
1715269876745580300,1.956580322265625,0.16738846898078918,-0.27895262837409973,-0.3380826413631439,-0.03087647631764412,-0.844580888748169,-0.5345368981361389,0.0660325288772583,0.030829548835754395,-0.01921945810317993,0.6516782288408894,0.37044871336540447,0.3090296035918883,0.5853066698135475
1715269876755570200,1.966570068359375,0.10785850882530212,-0.2591400444507599,-0.3361947238445282,-0.02947811596095562,-0.8454128503799438,-0.5332993268966675,0.05886634439229965,0.015532851219177246,-0.019495785236358643,0.6528226981821762,0.37116377793190974,0.30917275162303953,0.5834999552655734
1715269876765560000,1.97656005859375,0.056170281022787094,-0.2557258605957031,-0.33884909749031067,-0.0280069001019001,-0.8459278345108032,-0.5325615406036377,0.05174937844276428,0.008265912532806396,-0.009293079376220703,0.6540547357503403,0.3716506703068832,0.30918444662692507,0.5818017262122186
1715269876775550200,1.98655029296875,0.04387243837118149,-0.24888338148593903,-0.3458980917930603,-0.026488490402698517,-0.8462685942649841,-0.5320976972579956,0.044646255671978,0.008332014083862305,-0.00026595592498779297,0.6553481251296092,0.37201779489393244,0.309117975795072,0.5801446448127396
1715269876785540000,1.9965400390625,0.05064459145069122,-0.24813611805438995,-0.3553645610809326,-0.024868519976735115,-0.8466006517410278,-0.5316473245620728,0.042400676757097244,0.017285287380218506,-0.00010591745376586914,0.6566591489571573,0.37235312850085084,0.30907845215489993,0.5784655404609592
1715269876795530000,2.006530029296875,0.05352293699979782,-0.25031644105911255,-0.35815462470054626,-0.023193197324872017,-0.8469535112380981,-0.531160831451416,0.036941174417734146,0.01988118886947632,-0.006512761116027832,0.6579800070406521,0.3726944923519987,0.30906051464041967,0.5767518508235084
1715269876805520100,2.01652001953125,0.035806525498628616,-0.2456926554441452,-0.36260688304901123,-0.02146618254482746,-0.8472697138786316,-0.5307289958000183,0.03347465395927429,0.017405033111572266,-0.011873245239257812,0.6593206269265164,0.37300275491038865,0.3090379520370058,0.5750311085217972
1715269876815510000,2.026510009765625,0.02522924914956093,-0.22755306959152222,-0.35593485832214355,-0.01967666484415531,-0.8474918007850647,-0.5304437279701233,0.02761104330420494,0.012271285057067871,-0.004284977912902832,0.6606655446251384,0.3732188305097249,0.30900784538233933,0.5733611263124663
1715269876825501200,2.036501220703125,0.030504969879984856,-0.20658840239048004,-0.3508570194244385,-0.017849482595920563,-0.8477079272270203,-0.5301629304885864,0.021709764376282692,0.0022487640380859375,0.012325704097747803,0.6619554641435146,0.37339176270143926,0.30902608441651575,0.5717486761672409
1715269876835491000,2.046490966796875,0.02703375369310379,-0.20206928253173828,-0.34420159459114075,-0.016002435237169266,-0.8479127883911133,-0.5298942923545837,0.017131397500634193,-0.002581775188446045,0.011141538619995117,0.6632062424269938,0.3735324764967991,0.3090733623844757,0.5701796088741213
1715269876845481200,2.056481201171875,0.04828338325023651,-0.1945871263742447,-0.33111828565597534,-0.014183267019689083,-0.8481591939926147,-0.52955162525177,0.004951512441039085,0.00747603178024292,0.016459882259368896,0.6644046739255893,0.37369507198744534,0.3091539841156308,0.5686320250167178
1715269876855471000,2.06647119140625,0.08515575528144836,-0.21134747564792633,-0.3050767779350281,-0.012558970600366592,-0.8485509753227234,-0.5289645791053772,-0.004378471523523331,0.023309707641601562,0.021686434745788574,0.6654972900004913,0.37399852490529617,0.30926174379231075,0.5670940489398836
1715269876865461000,2.0764609375,0.13407215476036072,-0.22188399732112885,-0.2981847822666168,-0.011155657470226288,-0.849162757396698,-0.528013288974762,-0.01335014309734106,0.05410343408584595,0.020094335079193115,0.6664770993581643,0.3745100750294896,0.3094116226778018,0.5655217405869142
1715269876875451100,2.086451171875,0.1604790985584259,-0.2258766144514084,-0.2839120030403137,-0.009880850091576576,-0.8499787449836731,-0.5267242789268494,-0.01854645647108555,0.06900322437286377,0.013922452926635742,0.6673689967517783,0.3751962709143288,0.30962171837462243,0.5638978239381642
1715269876885441000,2.09644091796875,0.15337219834327698,-0.2086627334356308,-0.2611832618713379,-0.008726198226213455,-0.8508232831954956,-0.5253795981407166,-0.01910601556301117,0.046532273292541504,0.0013167858123779297,0.6681744043790403,0.37590998492027783,0.30984172854811914,0.5623458276227303
1715269876895431200,2.10643115234375,0.12075822055339813,-0.19539593160152435,-0.2406800538301468,-0.0076494645327329636,-0.8515581488609314,-0.524204432964325,-0.02088465355336666,0.021281421184539795,-0.005717754364013672,0.6689354547764582,0.37654274990870895,0.3100215385960963,0.5609167386407214
1715269876905421000,2.116421142578125,0.11422628909349442,-0.18087105453014374,-0.23486371338367462,-0.006612589582800865,-0.852176308631897,-0.5232129096984863,-0.03002394363284111,0.022769391536712646,-0.01031029224395752,0.6696725035000338,0.3770841386198601,0.3101630044469139,0.5595937589012301
1715269876915411200,2.1264111328125,0.12876373529434204,-0.1787130981683731,-0.2268836796283722,-0.005587792955338955,-0.8528315424919128,-0.522156298160553,-0.0338258370757103,0.035158634185791016,-0.01418977975845337,0.6703631558478843,0.3776395331908351,0.3103388780532172,0.5582933660329257
1715269876925401000,2.136401123046875,0.11293444037437439,-0.175771102309227,-0.21101416647434235,-0.004649043548852205,-0.8534684181213379,-0.521124005317688,-0.029759705066680908,0.024549663066864014,-0.021279871463775635,0.6710235853554674,0.3781986036804517,0.31048962059979246,0.5570363774720596
1715269876935391200,2.14639111328125,0.08451105654239655,-0.17122775316238403,-0.19448161125183105,-0.003824565326794982,-0.8539872169494629,-0.5202799439430237,-0.02493842877447605,0.009855568408966064,-0.02041494846343994,0.6716700832559885,0.3786957842738324,0.310563226926149,0.555877091606461
1715269876945381000,2.156381103515625,0.0736011490225792,-0.16463428735733032,-0.19100086390972137,-0.003055852372199297,-0.8543956875801086,-0.519614040851593,-0.023738756775856018,0.008661806583404541,-0.016610026359558105,0.672318012925407,0.37912318514590904,0.31057783605758815,0.5547932914398699
1715269876955371300,2.166371337890625,0.08680137246847153,-0.17122694849967957,-0.18082576990127563,-0.002345398999750614,-0.8548133969306946,-0.5189303159713745,-0.025791985914111137,0.013458847999572754,-0.015493214130401611,0.672936884520452,0.37956585365972123,0.31058750418521436,0.5537339169671096
1715269876965362200,2.176362060546875,0.06798586994409561,-0.17530158162117004,-0.17303895950317383,-0.0017388842534273863,-0.8552181124687195,-0.518265426158905,-0.022797424346208572,0.005928933620452881,-0.016234397888183594,0.6735471944828421,0.38003285158677264,0.3105516254350007,0.5526906879982463
1715269876975352000,2.18635205078125,0.01246999017894268,-0.1676979959011078,-0.17372019588947296,-0.001144341193139553,-0.8554315567016602,-0.5179147720336914,-0.0130922831594944,-0.00954371690750122,-0.011717498302459717,0.6742236576047145,0.38037933058139217,0.31040969210077946,0.5517064459351851
1715269876985342000,2.196342041015625,-0.0521358996629715,-0.1522045135498047,-0.17630000412464142,-0.000496560416650027,-0.8553178906440735,-0.5181033611297607,-0.008689403533935547,-0.02602994441986084,-0.00858396291732788,0.6749888522159548,0.3804770911786371,0.3101378845572016,0.550855491160792
1715269876995332400,2.206332275390625,-0.1142231896519661,-0.1441687047481537,-0.170823872089386,0.00021364558779168874,-0.8548804521560669,-0.5188250541687012,-0.01208515465259552,-0.03333389759063721,-0.003940761089324951,0.6758558985338816,0.38033241970489307,0.30973330179632846,0.5501194359451882
1715269877005322200,2.216322265625,-0.15228348970413208,-0.1426946371793747,-0.16789279878139496,0.000910680741071701,-0.8541673421859741,-0.5199974775314331,-0.01708516851067543,-0.021580517292022705,-0.0012729763984680176,0.6768036529475747,0.38000268516710306,0.30919124459381875,0.5494867051950572
1715269877015312100,2.22631201171875,-0.1742733120918274,-0.13752517104148865,-0.1622903048992157,0.0015841810964047909,-0.8533162474632263,-0.5213914513587952,-0.018384279683232307,-0.004884064197540283,0.002699732780456543,0.6777803787316338,0.379580984123934,0.30858149274863306,0.548916829827158
1715269877025302300,2.23630224609375,-0.18947969377040863,-0.1286240965127945,-0.15933899581432343,0.0022338302806019783,-0.852362871170044,-0.5229460000991821,-0.015249747782945633,0.002219259738922119,0.00028705596923828125,0.6787688484235865,0.3790891746243665,0.3079259682254041,0.5484029974921626
1715269877035292200,2.246292236328125,-0.2056153118610382,-0.11252608895301819,-0.1371936798095703,0.0028529465198516846,-0.8513262867927551,-0.5246288776397705,-0.015044888481497765,0.0109635591506958,-0.00294339656829834,0.6797347180584732,0.37852662302728896,0.3072509446721365,0.5479737707514897
1715269877045282000,2.256281982421875,-0.2112273871898651,-0.08036655187606812,-0.12111005187034607,0.0034302116837352514,-0.850212812423706,-0.5264280438423157,-0.021862998604774475,0.01824241876602173,-0.004409670829772949,0.6806335708372108,0.377878723922086,0.3065838567532568,0.5476787822449983
1715269877055272200,2.266272216796875,-0.18086586892604828,-0.04613694176077843,-0.10653030872344971,0.004051398020237684,-0.8491748571395874,-0.5280963182449341,-0.025230765342712402,0.025764644145965576,-0.004633486270904541,0.6814101550103769,0.37721331909437616,0.3060424201592952,0.5474746076083962
1715269877065262000,2.276261962890625,-0.16274304687976837,-0.034814249724149704,-0.09675038605928421,0.0047227866016328335,-0.8482595682144165,-0.5295597314834595,-0.02132451720535755,0.026619315147399902,-0.012691497802734375,0.6820755528734614,0.3765738443348834,0.3056342095492722,0.5473142449031061
1715269877075252000,2.286251953125,-0.14751632511615753,-0.03756609186530113,-0.08072607964277267,0.004929227288812399,-0.8477529883384705,-0.5303682684898376,-0.012604568153619766,0.029790163040161133,-0.010189235210418701,0.6825031669510252,0.37631276549160736,0.3052942117015636,0.5471503271594869
1715269877085242000,2.2962421875,-0.13931192457675934,-0.03185494244098663,-0.08127202093601227,0.004927534144371748,-0.8472695350646973,-0.5311404466629028,0.0009621903300285339,0.03235846757888794,-0.000383913516998291,0.6828717531255343,0.3761122925233049,0.30490870818565474,0.5470434792437818
1715269877095233300,2.3062333984375,-0.13982442021369934,-0.038371697068214417,-0.07529342174530029,0.004953385796397924,-0.8467158079147339,-0.5320224165916443,0.008260557428002357,0.02918022871017456,0.006876230239868164,0.6832635607472874,0.3758565690990922,0.30450060487687364,0.5469572481493542
1715269877105223200,2.31622314453125,-0.14135253429412842,-0.05802210047841072,-0.06297790259122849,0.004931019153445959,-0.8460716605186462,-0.5330464839935303,0.014706875197589397,0.02067774534225464,0.022350430488586426,0.6837025097227618,0.3755688727216604,0.3040144387142986,0.5468768583399359
1715269877115213000,2.326213134765625,-0.1298314929008484,-0.06409889459609985,-0.06980971246957779,0.004863221663981676,-0.8453691005706787,-0.5341604948043823,0.02695118449628353,0.015077173709869385,0.03216195106506348,0.6841777450058373,0.3752694426020165,0.3034676261208943,0.5467916168120176
1715269877125203200,2.336203125,-0.11195556074380875,-0.06314042210578918,-0.07674325257539749,0.004726561717689037,-0.8446792960166931,-0.535252034664154,0.03348127752542496,0.006498515605926514,0.02260279655456543,0.6846565112458248,0.37500753500411665,0.30289162505878414,0.5466915282389931
1715269877135193000,2.346193115234375,-0.09935193508863449,-0.06267011165618896,-0.06832992285490036,0.004497738089412451,-0.8440231680870056,-0.5362878441810608,0.02774391509592533,-0.003556966781616211,0.005816400051116943,0.6851051239807445,0.37479051840508765,0.30230471912952656,0.5466030571462143
1715269877145183000,2.356182861328125,-0.08896800875663757,-0.04786347225308418,-0.06668063253164291,0.004284942056983709,-0.8433064222335815,-0.5374158620834351,0.022478807717561722,-0.0012524127960205078,-0.0074141621589660645,0.6855467857948414,0.37451422723496197,0.30171373403403934,0.5465651096344818
1715269877155173000,2.366173095703125,1.6841199398040771,-0.03925640136003494,0.5404237508773804,0.0020748358219861984,-0.8485730290412903,-0.5290743112564087,0.01643390953540802,0.008317053318023682,-0.030297279357910156,0.6829603191638118,0.3782738141230719,0.3039272254334011,0.5459876133893887
1715269877165163000,2.3761630859375,0.6084384918212891,-0.7105032205581665,-0.37990427017211914,-0.001157285994850099,-0.8541175723075867,-0.520078718662262,-0.04825083911418915,-0.00010013580322265625,-0.01674044132232666,0.6813162372300856,0.38323911312182063,0.3051039643534358,0.5439187202588905
1715269877175153000,2.38615283203125,0.7286316752433777,-0.4594491720199585,-0.46759894490242004,0.00018803255807142705,-0.8573501110076904,-0.5147337317466736,-0.008260095492005348,0.04587221145629883,-0.014440774917602539,0.682275806604346,0.38610589313983634,0.3058682312111359,0.5402468120574344
1715269877185143300,2.396143310546875,0.5467169880867004,-0.26311588287353516,-0.3093073070049286,0.0017737892922013998,-0.8608155846595764,-0.5089139342308044,0.2580374479293823,0.1394103765487671,0.0902588963508606,0.6825186712070409,0.3887363843535456,0.30728984888171085,0.5372385326142525
1715269877195133200,2.40613330078125,0.16986456513404846,-0.2553415596485138,-0.16048189997673035,0.002557736588642001,-0.8625461459159851,-0.5059719085693359,0.018102502450346947,-0.02643108367919922,-0.03692018985748291,0.6828964287090107,0.3902200060389174,0.30780253312923983,0.5353861387809304
1715269877205122600,2.41612255859375,0.02249162644147873,-0.15903712809085846,-0.06937115639448166,0.0024702101945877075,-0.862991452217102,-0.5052124261856079,-0.12696683406829834,-0.0688323974609375,0.027627944946289062,0.6833350856586777,0.3909030515834514,0.30755257820220333,0.5344710444818627
1715269877215112400,2.426112548828125,-0.12780942022800446,0.005808545742183924,-0.02677282877266407,0.002548782154917717,-0.8627307415008545,-0.5056570768356323,-0.0736701563000679,-0.004197478294372559,0.013881981372833252,0.6837030040014402,0.3908526446193464,0.3072550376653111,0.5342084900475146
1715269877225103600,2.436103515625,-0.25701799988746643,0.20124755799770355,0.13200242817401886,0.0026773069985210896,-0.8617372512817383,-0.5073478817939758,-0.021018531173467636,0.036068737506866455,-0.016150355339050293,0.6838288132949799,0.38998874907681863,0.30697692934470144,0.5348385466944241
1715269877235093500,2.446093505859375,-0.43671852350234985,0.4390435814857483,0.48536810278892517,0.0017941899131983519,-0.859984278678894,-0.5103174448013306,-0.07511283457279205,0.02722036838531494,-0.011853218078613281,0.6832047505489449,0.3883831044721748,0.3065939333792158,0.5370195933394745
1715269877245083600,2.456083740234375,-0.4805738627910614,0.5196484327316284,0.6935673952102661,-0.0009462250163778663,-0.8575084805488586,-0.5144689083099365,-0.1428832858800888,0.025812745094299316,-0.0212516188621521,0.6817082707452427,0.386328457043587,0.305803653594952,0.5408402838920513
1715269877255073500,2.466073486328125,-0.23085413873195648,0.3845318853855133,0.4370138347148895,-0.0035757937002927065,-0.855638325214386,-0.5175620317459106,-0.1630198359489441,0.06907802820205688,-0.024796009063720703,0.6801261512540079,0.384753958583416,0.3052595254182856,0.5442514061399744
1715269877265063400,2.4760634765625,-0.14339938759803772,0.2420024424791336,0.2274792194366455,-0.004631209187209606,-0.8547636270523071,-0.5189968943595886,-0.05838775634765625,0.06449544429779053,-0.018722474575042725,0.6791193417882158,0.38381633415387395,0.3052647377142461,0.546164333228531
1715269877275053600,2.486053466796875,-0.21479268372058868,0.11527805030345917,0.17343436181545258,-0.005426354240626097,-0.8538475632667542,-0.5204949378967285,0.08904434740543365,0.002712070941925049,-0.004346013069152832,0.6786278216478631,0.3830432607119041,0.30500881683186987,0.547459432584428
1715269877285043500,2.49604345703125,-0.2985818386077881,-0.02935849502682686,-0.018137728795409203,-0.005931403022259474,-0.8524895906448364,-0.5227106213569641,0.07346663624048233,0.0179252028465271,0.02695286273956299,0.678821530881977,0.38217370100323084,0.30428266065495296,0.5482306145725561
1715269877295033300,2.506033447265625,-0.4352317750453949,-0.28444939851760864,-0.33021819591522217,-0.005266120657324791,-0.8505961298942566,-0.5257933139801025,0.011461020447313786,0.00698322057723999,0.03433859348297119,0.6801779178884961,0.3810753252022106,0.30312527092638697,0.5479551208005204
1715269877305023500,2.5160234375,-0.3500843942165375,-0.4468396306037903,-0.6034971475601196,-0.003144066547974944,-0.8484041094779968,-0.5293399095535278,0.05784665793180466,-0.07403570413589478,0.02470153570175171,0.6831981506565881,0.38012745502804196,0.301385414784073,0.5458116442772208
1715269877315013400,2.526013427734375,-0.27145951986312866,-0.21696114540100098,-0.17017079889774323,-0.001697311527095735,-0.8468059301376343,-0.5318993330001831,0.17515906691551208,-0.15662747621536255,0.04004788398742676,0.6853661654145797,0.3794608609299874,0.3000996193056886,0.5442637234583159
1715269877325003300,2.536003173828125,-0.23888160288333893,0.08244526386260986,0.060519665479660034,-0.0017052341718226671,-0.8454139828681946,-0.5341089963912964,0.060466665774583817,-0.0709071159362793,0.011907756328582764,0.6860408845487115,0.37866723962615273,0.299260116964375,0.5444286457081978
1715269877334993700,2.54599365234375,-0.08430533856153488,0.11663945019245148,0.10835570096969604,-0.0018557929433882236,-0.8445406556129456,-0.5354881882667542,-0.25646039843559265,0.08877265453338623,0.008861899375915527,0.6859336633551752,0.3779323636264503,0.2990368664760688,0.545196362178141
1715269877344983600,2.555983642578125,-0.04995642602443695,-0.02624206431210041,0.043960731476545334,-0.0023580025881528854,-0.8442463278770447,-0.5359501838684082,-0.1946941614151001,0.04341912269592285,0.01844865083694458,0.6857245788893874,0.37775127249013013,0.2988793916850501,0.5456710839712484
1715269877354973400,2.565973388671875,-0.08706735819578171,-0.12505945563316345,-0.09085607528686523,-0.0026047329884022474,-0.8438606262207031,-0.5365561246871948,0.047114454209804535,-0.0356561541557312,0.008373498916625977,0.6860589915845984,0.3777012160891635,0.29843547547616506,0.5455283145742182
1715269877364964600,2.575964599609375,-0.08415785431861877,-0.09945476055145264,-0.10948435217142105,-0.0023206842597573996,-0.8433993458747864,-0.5372822880744934,0.13058589398860931,-0.06793206930160522,0.026082634925842285,0.6866961024609928,0.37756494534255053,0.29799929663498015,0.5450593340364001
1715269877374954500,2.58595458984375,-0.06876920908689499,-0.05063129588961601,-0.052847836166620255,-0.0020147657487541437,-0.8429805040359497,-0.537940263748169,0.04544111713767052,-0.06108766794204712,0.016685187816619873,0.6871844841808885,0.3773753362163837,0.2976872917114661,0.5447453799477637
1715269877384944400,2.5959443359375,-0.04101107642054558,-0.04471827670931816,-0.04288335517048836,-0.0018725334666669369,-0.8426864147186279,-0.5384014844894409,-0.04047076776623726,-0.023845136165618896,0.009165942668914795,0.6874735045893876,0.3772385558983992,0.2974732648377261,0.5445924109168435
1715269877394934500,2.6059345703125,-0.053276266902685165,-0.08094605803489685,-0.06859424710273743,-0.001749950461089611,-0.8424445986747742,-0.5387800335884094,-0.03694650158286095,-0.01006406545639038,0.010780513286590576,0.6878019178416701,0.37717392045700665,0.2972369855366145,0.5443513795772803
1715269877404924400,2.61592431640625,-0.08961803466081619,-0.10464845597743988,-0.08097182214260101,-0.0016153500182554126,-0.8420515060424805,-0.5393946766853333,0.014478346332907677,-0.030553042888641357,0.020855605602264404,0.6882958137590865,0.3770698642447086,0.29685179158784303,0.5440093201220041
1715269877414914600,2.62591455078125,-0.0942123532295227,-0.09309700131416321,-0.08229687064886093,-0.001460179453715682,-0.8415420651435852,-0.5401896238327026,0.04079717397689819,-0.04645860195159912,0.03419327735900879,0.688850075228712,0.3768952666464263,0.29640369215799045,0.5436730400021447
1715269877424904700,2.63590478515625,-0.0754341408610344,-0.08501723408699036,-0.0715361014008522,-0.0012743028346449137,-0.8410904407501221,-0.5408929586410522,0.021232636645436287,-0.04182898998260498,0.03213471174240112,0.6893459142526155,0.3767261957183312,0.2960251757336899,0.5433678336353484
1715269877434894600,2.64589453125,-0.04172959923744202,-0.1002236157655716,-0.07289212197065353,-0.0011574884410947561,-0.8407707810401917,-0.5413901209831238,0.00027231709100306034,-0.02309054136276245,0.021813392639160156,0.6897962248168054,0.37666582958308437,0.2956819260972015,0.5430251552722165
1715269877444884500,2.655884521484375,-0.026377275586128235,-0.11201022565364838,-0.07586207985877991,-0.0011146144242957234,-0.8405948877334595,-0.5416632294654846,0.006104077212512493,-0.006039261817932129,0.010840773582458496,0.6902164442783258,0.3767341655559537,0.2953637874049499,0.5426167017345319
1715269877454874600,2.66587451171875,-0.02105286903679371,-0.10114933550357819,-0.08348338305950165,-0.001024124794639647,-0.8404737710952759,-0.5418511629104614,0.014787391759455204,-0.006999552249908447,0.0007290840148925781,0.6906371371025645,0.3768312628094718,0.2950806979116239,0.5421677312224934
1715269877464864500,2.675864501953125,-0.02935847081243992,-0.07924376428127289,-0.07579829543828964,-0.0008353167795576155,-0.8403380513191223,-0.5420621037483215,0.007579541299492121,-0.014871537685394287,-0.00334775447845459,0.6910366792993634,0.376869966335354,0.2948524675859461,0.5417559017833855
1715269877474854400,2.6858544921875,-0.018489310517907143,-0.07890661060810089,-0.07820439338684082,-0.0006603033980354667,-0.8402173519134521,-0.542249321937561,-0.0003621953655965626,-0.018181264400482178,-0.0019245743751525879,0.6913986326529502,0.3769057427467846,0.2946479294291708,0.5413802553038507
1715269877484844500,2.695844482421875,-0.0027617462910711765,-0.08169201016426086,-0.07908723503351212,-0.00043448348878882825,-0.8401779532432556,-0.5423107147216797,0.0013803689507767558,-0.008775532245635986,-0.00576937198638916,0.6917454360552535,0.3769825350264591,0.29449754293216074,0.5409655728026938
1715269877494835700,2.705835693359375,0.024410273879766464,-0.07404421269893646,-0.07079900801181793,-0.00013280131679493934,-0.8403140902519226,-0.5420998930931091,0.0006819585105404258,0.004452645778656006,-0.012388944625854492,0.6920300501153527,0.37714435945156555,0.2944693157865312,0.5405039500361747
1715269877504825600,2.71582568359375,0.024828655645251274,-0.06384509801864624,-0.068871408700943,0.000203907533432357,-0.840645968914032,-0.5415849685668945,-0.004934290889650583,0.006707131862640381,-0.021662354469299316,0.6922190634990416,0.37740447553481776,0.29457319164207796,0.5400233391294247
1715269877514815500,2.7258154296875,0.008585077710449696,-0.061041589826345444,-0.06418570876121521,0.00041743344627320766,-0.8408547639846802,-0.5412607789039612,-0.008199574425816536,0.0027197599411010742,-0.02201712131500244,0.6924168613860652,0.37761077389310227,0.29458397556988697,0.5396196537259023
1715269877524805600,2.7358056640625,-0.007875122129917145,-0.04860995337367058,-0.05859760567545891,0.0007335202535614371,-0.840972363948822,-0.5410776734352112,-0.005494420882314444,-0.00230485200881958,-0.014967560768127441,0.692637515391156,0.3777183867816897,0.29460140436454035,0.53925154759493
1715269877534795500,2.74579541015625,-0.006090271286666393,-0.04338456690311432,-0.06132761016488075,0.0012873249361291528,-0.8409686088562012,-0.5410825610160828,-0.0035457834601402283,-0.007801830768585205,-0.014596521854400635,0.6929117909682869,0.3776716461202853,0.2946571920761782,0.5389014036247431
1715269877544785400,2.755785400390625,-0.011439762078225613,-0.03496311977505684,-0.0627039298415184,0.0017275672871619463,-0.8409707546234131,-0.5410778522491455,-0.0054508694447577,-0.00876086950302124,-0.01823270320892334,0.6931541236705208,0.37765245889225324,0.29468573897762246,0.5385873883281291
1715269877554775600,2.765775634765625,-0.0344749353826046,-0.0329873189330101,-0.0687260702252388,0.0020260890014469624,-0.8409162759780884,-0.5411615371704102,-0.0029417737387120724,-0.004497170448303223,-0.01972067356109619,0.6933910218743594,0.37763271024366546,0.2946400571248764,0.5383212847597928
1715269877564765400,2.775765380859375,-0.04962672293186188,-0.020416665822267532,-0.06454117596149445,0.002396677155047655,-0.8406737446784973,-0.5415366888046265,-0.0002758628688752651,-0.0035799741744995117,-0.017270326614379883,0.6936837109440331,0.37746223342556134,0.29454016373868097,0.5381184054638019
1715269877574755300,2.78575537109375,-0.052226342260837555,-0.014899661764502525,-0.07082816958427429,0.0028314050287008286,-0.8402376174926758,-0.5422109365463257,-0.001427753595635295,-0.0016815662384033203,-0.011835336685180664,0.6940388335205572,0.37714317637246314,0.294376552608459,0.537973558495563
1715269877584745500,2.795745361328125,-0.04930165782570839,-0.016406478360295296,-0.07037090510129929,0.0031615702901035547,-0.8397188782691956,-0.5430121421813965,-0.0023835289757698774,0.0009888410568237305,-0.006319224834442139,0.6944021114392259,0.3767968220750307,0.2941395900449608,0.537877061060933
1715269877594735400,2.8057353515625,-0.04697448015213013,-0.02124783955514431,-0.07274531573057175,0.003407306270673871,-0.839249312877655,-0.5437361598014832,0.0036573566030710936,0.004684865474700928,-0.0019330978393554688,0.6947474935690807,0.37651121405951776,0.2938898006435656,0.5377676460581916
1715269877604725500,2.8157255859375,-0.026692379266023636,-0.025359492748975754,-0.06830582022666931,0.0036730626598000526,-0.8389497399330139,-0.5441965460777283,0.008793211542069912,0.01396787166595459,0.0013654232025146484,0.695039236198337,0.37633054290367707,0.29372956720490295,0.53760463116756
1715269877614716400,2.82571630859375,-0.0056829676032066345,-0.018645664677023888,-0.06667031347751617,0.004013430792838335,-0.8388219475746155,-0.5443910956382751,0.0038294303230941296,0.022583365440368652,-0.0020258426666259766,0.6952815981746872,0.3762393431644451,0.293680802105937,0.5373817112180307
1715269877624706600,2.83570654296875,-0.00818261131644249,-0.012285503558814526,-0.06783198565244675,0.00431768037378788,-0.8387229442596436,-0.5445413589477539,0.001907749567180872,0.01863914728164673,-0.006529510021209717,0.6954925452363463,0.3761673970979478,0.2936450577183255,0.5371786868881957
1715269877634696400,2.845696533203125,-0.029885457828640938,-0.00048769963905215263,-0.06080849468708038,0.004731649532914162,-0.8385115265846252,-0.5448634028434753,0.0022262027487158775,0.005625605583190918,-0.005841255187988281,0.6957356566740824,0.3759822898971879,0.2936079049146736,0.5370137616087047
1715269877644686300,2.855686279296875,-0.05221126601099968,0.009387301281094551,-0.05458655208349228,0.005174462683498859,-0.8381929993629456,-0.5453492999076843,0.004529972095042467,-0.00543522834777832,0.0019382834434509277,0.6959817856074891,0.3757005824566444,0.293554779261597,0.5369210418953341
1715269877654676500,2.865676513671875,-0.05141109228134155,0.015545329079031944,-0.054415374994277954,0.005621407646685839,-0.8378485441207886,-0.5458738207817078,0.0064176213927567005,-0.008465111255645752,0.006765902042388916,0.69621560713345,0.3753897984363297,0.2935056633024215,0.5368620049288728
1715269877664666400,2.875666259765625,-0.04351029545068741,0.005543827544897795,-0.05034446716308594,0.006000323221087456,-0.8375608325004578,-0.5463113188743591,0.0059013767167925835,-0.0012302994728088379,0.007493257522583008,0.6964200533437888,0.37513341822737095,0.2934608511083496,0.5368006423405219
1715269877674656500,2.885656494140625,-0.04087322950363159,0.0007565292762592435,-0.047083694487810135,0.00641676364466548,-0.8373162150382996,-0.5466813445091248,0.0068734860979020596,0.005391597747802734,0.010533571243286133,0.6966249331657428,0.37490031711612803,0.2934434919863697,0.53670712465872
1715269877684646700,2.895646728515625,-0.05363057553768158,-0.004465396981686354,-0.037995923310518265,0.00686533423140645,-0.8370189666748047,-0.5471307635307312,0.009415637701749802,0.005231678485870361,0.016460955142974854,0.6968630846446312,0.37463134179237756,0.29340412392335535,0.5366070941951023
1715269877694636500,2.905636474609375,-0.06952394545078278,-0.008885178714990616,-0.03314424306154251,0.0071405693888664246,-0.8365688323974609,-0.5478153228759766,0.013489157892763615,-0.0005437731742858887,0.022653937339782715,0.6971265050890039,0.3743100207365602,0.29323088719395835,0.5365839219012426
1715269877704626700,2.915626708984375,-0.06153925508260727,-0.007426299154758453,-0.025532927364110947,0.007321418263018131,-0.8360799551010132,-0.5485588312149048,0.013262532651424408,-0.001124262809753418,0.026617050170898438,0.6973779362088459,0.373983135161263,0.29301396727819584,0.5366037871580268
1715269877714616600,2.925616455078125,-0.043784283101558685,-0.017527669668197632,-0.02136022038757801,0.0074414825066924095,-0.8357471227645874,-0.5490642189979553,0.01070106215775013,0.006431698799133301,0.0240401029586792,0.6975710997244794,0.373773995951841,0.29284962214339194,0.5365881359909748
1715269877724606500,2.9356064453125,-0.008449459448456764,-0.022414837032556534,-0.014556377194821835,0.007529569789767265,-0.8356925249099731,-0.5491461753845215,0.009071838110685349,0.018889307975769043,0.01804906129837036,0.6976697264428412,0.37375274121317925,0.29280678051786674,0.5364981164211343
1715269877734596600,2.9455966796875,0.01585843786597252,-0.031319912523031235,-0.006618359591811895,0.007540754973888397,-0.8358566164970398,-0.5488960146903992,0.010937483981251717,0.02964305877685547,0.017112314701080322,0.6976899509677019,0.37389488060328735,0.29283890229507586,0.5363549821400285
1715269877744586500,2.95558642578125,0.04756070673465729,-0.03595221787691116,-0.0024830028414726257,0.007435344159603119,-0.8361125588417053,-0.5485075116157532,0.011409105733036995,0.034293532371520996,0.01692211627960205,0.6976663992467373,0.3741284832333472,0.29287219535651765,0.5362046110410064
1715269877754577400,2.965577392578125,0.046438612043857574,-0.03909954056143761,0.0009143915958702564,0.007304511498659849,-0.8364391922950745,-0.5480111837387085,0.011372091248631477,0.02673131227493286,0.016608893871307373,0.6976162635633609,0.37441459760467566,0.2929302305487709,0.5360384944171698
1715269877764567600,2.975567626953125,0.01697366312146187,-0.044323597103357315,0.007264433428645134,0.0071358224377036095,-0.8366909623146057,-0.5476289391517639,0.014500985853374004,0.008886158466339111,0.017172694206237793,0.6975920970831112,0.3746665831610074,0.29293426371667775,0.5358917105039629
1715269877774557700,2.9855576171875,0.0026510225143283606,-0.03488721698522568,0.012313786894083023,0.00699485233053565,-0.836868166923523,-0.5473598837852478,0.017495349049568176,0.00035059452056884766,0.01815485954284668,0.6975871989608803,0.37485838056998855,0.292918519791778,0.5357724247720096
1715269877784547600,2.995547607421875,-0.023516666144132614,-0.03348027169704437,0.012903676368296146,0.0068684956058859825,-0.8369554877281189,-0.5472279191017151,0.013074587099254131,-0.002903759479522705,0.013567328453063965,0.6975946237118624,0.37497779809015,0.2928782639640823,0.5357011950686748
1715269877794537500,3.005537353515625,-0.017654195427894592,-0.03239769488573074,0.01657344587147236,0.006693753879517317,-0.8369225859642029,-0.5472804307937622,0.005101135466247797,0.0025870203971862793,0.014855802059173584,0.6976339988128287,0.37503216060642675,0.2927638483774486,0.5356744259571913
1715269877804527600,3.015527587890625,-0.022502213716506958,-0.03904521092772484,0.017879726365208626,0.006468977779150009,-0.8368338942527771,-0.5474187731742859,0.0029302816838026047,0.006709754467010498,0.017878055572509766,0.6976843074022693,0.3750636413907314,0.2926053334933998,0.5356735190535349
1715269877814517500,3.025517578125,-0.021602226421236992,-0.03284590691328049,0.011988215148448944,0.0062607959844172,-0.8366908431053162,-0.5476397275924683,0.005320470314472914,0.0028588175773620605,0.01173621416091919,0.6977647807371151,0.37506122479501386,0.29241958075823876,0.5356717075001124
1715269877824507400,3.03550732421875,-0.008961798623204231,-0.02846660278737545,0.014943258836865425,0.006096064578741789,-0.8365839123725891,-0.5478050112724304,0.005256320349872112,0.00559002161026001,0.009322643280029297,0.6978263829539232,0.375063253055915,0.2922756543837487,0.5356686604197312
1715269877834497500,3.04549755859375,-0.010300942696630955,-0.01949441432952881,0.009870469570159912,0.0059980545192956924,-0.8365246653556824,-0.5478965044021606,0.00009004771709442139,0.0028910040855407715,0.002486705780029297,0.6978726108722713,0.37507332254229503,0.2921844270603078,0.5356512172437581
1715269877844487400,3.0554873046875,-0.014843761920928955,-0.012321455404162407,-0.00026019540382549167,0.006030411925166845,-0.836523711681366,-0.5478975176811218,-0.0011477540247142315,-0.004754543304443359,-0.0034021735191345215,0.6979055988719214,0.3750795116950564,0.29217560999858605,0.5356085360836673
1715269877854477300,3.065477294921875,-0.01765536703169346,-0.004917335230857134,-0.0027721556834876537,0.006209724582731724,-0.8365412950515747,-0.5478686094284058,0.0030979826115071774,-0.01375490427017212,-0.0027748942375183105,0.6979416444057909,0.3750521469927287,0.2922354679569877,0.535548036378486
1715269877864467500,3.075467529296875,-0.019141944125294685,0.0004979362711310387,-0.015571573749184608,0.006454300135374069,-0.8365415930747986,-0.5478653907775879,0.002914442215114832,-0.012808561325073242,-0.0018016695976257324,0.6979965911145147,0.37499840671265794,0.29230719545484624,0.5354750107878252
1715269877874457600,3.08545751953125,-0.029670165851712227,0.003984546754509211,-0.022739538922905922,0.006703739054501057,-0.8365042209625244,-0.5479195713996887,-0.00020364858210086823,-0.009168624877929688,0.0009075403213500977,0.698066297816765,0.37492007292672397,0.2923613619165655,0.5354094340104147
1715269877884448500,3.095448486328125,-0.038205862045288086,0.0022678731475025415,-0.02044389396905899,0.006958373356610537,-0.836418628692627,-0.5480470061302185,0.0013422537595033646,-0.012824714183807373,0.005826234817504883,0.6981626237001667,0.37481486001777137,0.29238725797646625,0.5353434187163633
1715269877894438400,3.1054384765625,-0.03773954510688782,0.0018572136759757996,-0.02739221416413784,0.0072677223943173885,-0.8362845778465271,-0.5482475757598877,0.0028944774530828,-0.016865074634552002,0.007705330848693848,0.6982800138812313,0.37466256911382656,0.2924109525982076,0.5352839577521928
1715269877904428500,3.115428466796875,-0.02745947614312172,0.005369923077523708,-0.02106667309999466,0.007555870804935694,-0.8361595273017883,-0.5484343767166138,0.0020722709596157074,-0.013114392757415771,0.005481243133544922,0.6983875479207179,0.3745196768109269,0.29243429741391846,0.5352309874009317
1715269877914418400,3.12541845703125,-0.012104860506951809,-0.0011452340986579657,-0.015185615047812462,0.007698297034949064,-0.8360572457313538,-0.5485881567001343,-0.0003742319531738758,-0.0028558969497680664,0.0006301999092102051,0.6984659201163859,0.3744296844185445,0.2924180574232465,0.5352003524232564
1715269877924408300,3.135408203125,0.0019406506326049566,-0.008521124720573425,-0.012064124457538128,0.007736197207123041,-0.8360393047332764,-0.548615038394928,-0.0018769758753478527,0.006037294864654541,-0.0009298920631408691,0.6985068615583861,0.3744242762279354,0.29240200740515576,0.5351595041082101
1715269877934398500,3.1453984375,0.00669279508292675,-0.008330176584422588,-0.009506956674158573,0.007796335034072399,-0.836117148399353,-0.5484955310821533,-0.003112040925770998,0.006099820137023926,-0.0014156699180603027,0.6985192724138043,0.37447455907252303,0.2924397898485443,0.5350875160388323
1715269877944388400,3.155388427734375,-0.0018586153164505959,-0.0074886176735162735,0.00033502106089144945,0.00780332088470459,-0.8361856937408447,-0.5483909249305725,-0.0024628988467156887,0.001132965087890625,0.0037897825241088867,0.6985204917900016,0.3745293090729606,0.2924591143887767,0.5350369626737776
1715269877954378500,3.16537841796875,-0.010209541767835617,-0.012145154178142548,0.004081889055669308,0.00772047508507967,-0.8362069129943848,-0.5483596920967102,-0.0017239251174032688,-0.0012871623039245605,0.004109561443328857,0.6985187845961807,0.3745741969594825,0.29242830540689096,0.5350246453033344
1715269877964368600,3.17536865234375,-0.016095396131277084,-0.01648504100739956,0.009908352047204971,0.007595334202051163,-0.8362411260604858,-0.5483094453811646,-0.004192777909338474,0.005476117134094238,0.0038914084434509277,0.6985119357546018,0.3746413441074349,0.292385275192926,0.5350101923029137
1715269877974358500,3.185358642578125,-0.011253340169787407,-0.017719684168696404,0.01167456153780222,0.007429488003253937,-0.8362892270088196,-0.5482383370399475,-0.006498854141682386,0.013947010040283203,0.006521046161651611,0.6984909852646364,0.3747262655968806,0.29233724561435376,0.5350043624879091
1715269877984348400,3.195348388671875,0.00015004770830273628,-0.012135833501815796,0.012019440531730652,0.007269660942256451,-0.8363490104675293,-0.5481493473052979,-0.004813149571418762,0.014739274978637695,0.004494190216064453,0.6984574711107394,0.37481187593655074,0.2923036061942395,0.5350065459690987
1715269877994338600,3.205338623046875,0.0044504133984446526,-0.012396024540066719,0.012860266491770744,0.0071046678349375725,-0.8363721370697021,-0.548116147518158,-0.003625817596912384,0.004600048065185547,0.003698110580444336,0.6984377894221716,0.3748767128843789,0.29224883493020687,0.5350166855424805
1715269878004329500,3.21532958984375,0.013569343835115433,-0.010628750547766685,0.01830137148499489,0.006869478616863489,-0.8363903164863586,-0.5480912923812866,-0.004138309042900801,-0.000752866268157959,0.0064656734466552734,0.6984024825747602,0.37495302173630224,0.29217217442212334,0.5350511157568814
1715269878014319400,3.2253193359375,0.019584892317652702,-0.0142610352486372,0.01747526042163372,0.0066203526221215725,-0.8364412784576416,-0.5480166673660278,-0.0037823724560439587,0.005249083042144775,0.007428586483001709,0.6983518197937144,0.37505268700014766,0.2921081305224229,0.5350823368184622
1715269878024309500,3.2353095703125,0.024251015856862068,-0.017491184175014496,0.015927430242300034,0.0063707237131893635,-0.8365762829780579,-0.5478134751319885,-0.004249906167387962,0.00726085901260376,0.007805228233337402,0.6982832145300788,0.3752120482028551,0.2920773451858404,0.5350770228007178
1715269878034299600,3.245299560546875,0.022423023357987404,-0.022606050595641136,0.015021421946585178,0.006135028786957264,-0.8367291688919067,-0.5475826859474182,-0.0021068621426820755,0.0026072263717651367,0.00694882869720459,0.698220529317735,0.37538466217889926,0.29205308134492086,0.5350510100379282
1715269878044289500,3.25528955078125,0.01769404672086239,-0.017651772126555443,0.010640788823366165,0.005871316883713007,-0.8368323445320129,-0.547427773475647,0.0002473043277859688,-0.003942370414733887,0.007984161376953125,0.6981750249778784,0.37553546593826487,0.29199180678170955,0.5350379574841043
1715269878054279700,3.26527978515625,0.004535900894552469,-0.008874792605638504,0.008027162402868271,0.00567265972495079,-0.836872398853302,-0.5473687052726746,0.001880287192761898,-0.007839083671569824,0.0052242279052734375,0.6981430324395815,0.3756192045998651,0.2919347045838873,0.5350521153255686
1715269878064269600,3.27526953125,-0.004047466907650232,-0.006466495804488659,0.0035005875397473574,0.005549806635826826,-0.836833119392395,-0.5474299788475037,-0.0017810389399528503,-0.010975897312164307,0.001898050308227539,0.6981495847573602,0.3756325773663519,0.2918650162904845,0.5350721653781284
1715269878074259500,3.285259521484375,-0.013748669996857643,0.0016665314324200153,0.0006515377899631858,0.005469308700412512,-0.8367724418640137,-0.5475236177444458,-0.002493998035788536,-0.008595168590545654,0.0025257468223571777,0.6981640831088699,0.37561801479106677,0.29180353468906695,0.5350970536130706
1715269878084249600,3.29524951171875,-0.005448396783322096,-0.000914071686565876,-0.0005298404721543193,0.005434080492705107,-0.836763322353363,-0.5475379228591919,-0.001207549124956131,-0.0024245381355285645,0.0052408576011657715,0.6981600149781685,0.3756203756217085,0.2917882482151563,0.5351090104979405
1715269878094239500,3.305239501953125,0.0025390093214809895,-0.00458124466240406,0.0033259508199989796,0.005378353875130415,-0.8367775082588196,-0.5475167036056519,-0.0022809733636677265,0.0011602044105529785,0.0013591647148132324,0.6981534605896352,0.3756476922487699,0.291771263683593,0.5351076148397869
1715269878104229400,3.3152294921875,0.0005725310184061527,0.0013402941403910518,0.007114297244697809,0.005282571539282799,-0.836805522441864,-0.5474748015403748,-0.0015290635637938976,0.0037364959716796875,0.0017598271369934082,0.6981230312924875,0.37568707010749586,0.29175642624524467,0.5351277988094525
1715269878114219500,3.325219482421875,-0.0010470431298017502,0.0028982432559132576,0.009606284089386463,0.005204109009355307,-0.8368292450904846,-0.5474392175674438,-0.0013743066228926182,0.009024500846862793,0.00244140625,0.6980890376670621,0.37571515459554294,0.29175078347318295,0.5351553343922703
1715269878124209400,3.33520947265625,-0.0012081647291779518,0.0069563682191073895,0.01362099964171648,0.005136955063790083,-0.8368808627128601,-0.5473610758781433,-0.0017191395163536072,0.007992684841156006,0.0017681121826171875,0.6980334283797611,0.3757503595175784,0.29177239026319196,0.5351915155250709
1715269878134200600,3.34520068359375,-0.007380466442555189,0.006829335354268551,0.01576404459774494,0.005075369495898485,-0.8369161486625671,-0.5473077297210693,-0.0009709084406495094,0.002595841884613037,0.002477705478668213,0.6979654837867317,0.3757635649133676,0.2918011030508418,0.5352552299691152
1715269878144190500,3.3551904296875,-0.016278887167572975,0.00917025376111269,0.020103398710489273,0.004953339695930481,-0.8368995785713196,-0.5473341941833496,0.0018977029249072075,0.0031284689903259277,0.0017259716987609863,0.6979100503286249,0.37576160799138153,0.2917809382153116,0.5353398938927489
1715269878154180600,3.3651806640625,-0.021132443100214005,0.016676373779773712,0.026015883311629295,0.004809858277440071,-0.8368446826934814,-0.5474193692207336,0.0024226540699601173,0.006247520446777344,0.0019484758377075195,0.697852109788912,0.37573411332265255,0.291743354384747,0.5354552036266117
1715269878164170500,3.37517041015625,0.5226892828941345,-0.07898916304111481,0.21162542700767517,0.004106001928448677,-0.8375802636146545,-0.5462989807128906,-0.0004440466873347759,0.00939399003982544,0.000019431114196777344,0.6974244515215343,0.37635031311481487,0.29190912829126553,0.5354892918582805
1715269878174160400,3.385160400390625,0.292005717754364,-0.05594616383314133,0.31713035702705383,0.00159096356946975,-0.8401696681976318,-0.5423214435577393,-0.017094047740101814,0.010060727596282959,0.016503870487213135,0.6956587748850505,0.378402716275606,0.29266134410598094,0.5359288968933047
1715269878184150500,3.395150634765625,0.282780259847641,-0.025784799829125404,0.23534174263477325,-0.0009117626468650997,-0.8415390253067017,-0.5401954650878906,-0.11117945611476898,0.01419210433959961,0.04690968990325928,0.6945986373939388,0.3798355129484634,0.2926213566099575,0.5363118243681789
1715269878194140400,3.405140380859375,0.2970903217792511,0.01253648940473795,0.2179688662290573,-0.002988064894452691,-0.8431967496871948,-0.5375967621803284,-0.0008115293458104134,0.044170081615448,0.057280898094177246,0.6933883777128194,0.3812875147071772,0.2929529907661009,0.5366664881693669
1715269878204130300,3.41513037109375,0.07383007556200027,0.0036154326517134905,0.10427693277597427,-0.004241226240992546,-0.844150722026825,-0.5360891222953796,0.04383762925863266,0.034244537353515625,0.06569153070449829,0.6926291509036075,0.3821137168734257,0.2931629944810879,0.5369444749899962
1715269878214121200,3.425121337890625,-0.06128193810582161,0.02472124993801117,0.07530932873487473,-0.004863606300204992,-0.8441105484962463,-0.5361472964286804,-0.009128859266638756,-0.039434611797332764,0.0471491813659668,0.6924007846905607,0.38217411027850207,0.29303464848834737,0.5372661786750078
1715269878224111000,3.435111083984375,-0.1877775639295578,0.02165328897535801,-0.006337062921375036,-0.0049951388500630856,-0.8433979749679565,-0.537266194820404,0.009587878361344337,-0.04852420091629028,0.06415247917175293,0.6925135278711685,0.3816840797742162,0.2927185766975431,0.537641349127216
1715269878234101000,3.44510107421875,-0.29354578256607056,-0.048109546303749084,-0.1227307841181755,-0.004446689505130053,-0.8420730233192444,-0.5393452644348145,0.02036144956946373,-0.028059661388397217,0.032280802726745605,0.6931821910275998,0.3807470439673124,0.2921627122707346,0.5377463515487797
1715269878244091100,3.455091064453125,-0.39548707008361816,-0.13276158273220062,-0.23429273068904877,-0.003423050744459033,-0.840186357498169,-0.5422869324684143,0.024769941344857216,-0.01886838674545288,0.02132171392440796,0.6944597451607825,0.37951135282601917,0.29125189401923846,0.5374654537247068
1715269878254082000,3.46508203125,-0.4735719859600067,-0.16227953135967255,-0.39348018169403076,-0.0016701135318726301,-0.8378621339797974,-0.5458793640136719,0.05176456272602081,-0.03639036417007446,0.001995384693145752,0.6963239319814273,0.3779853939773623,0.2901505793590945,0.536724043483978
1715269878264072000,3.475072021484375,-0.38446715474128723,-0.13374774158000946,-0.4217802584171295,0.0005911129410378635,-0.8354548811912537,-0.5495588183403015,0.05707169696688652,-0.04485541582107544,-0.0019850730895996094,0.6984835173894851,0.37638765832001525,0.28905524660367526,0.5356306575210623
