time,seconds_elapsed,rotationRateX,rotationRateY,rotationRateZ,gravityX,gravityY,gravityZ,accelerationX,accelerationY,accelerationZ,quaternionW,quaternionX,quaternionY,quaternionZ
1715269984837257200,0.02625732421875,-0.044900037348270416,-0.017800377681851387,0.0047032712027430534,-0.06504326313734055,-0.3557247817516327,-0.9323246479034424,0.005595028400421143,-0.00024753808975219727,0.018948793411254883,0.9829355186933593,0.1809502048549309,-0.033086232331710444,0
1715269984847247400,0.036247314453125,-0.056811291724443436,-0.022015629336237907,0.0022104191593825817,-0.06560419499874115,-0.35527488589286804,-0.932456910610199,0.009543389081954956,-0.011851608753204346,0.015418946743011475,0.9829691957190325,0.18071571030776262,-0.03336750927696347,0.000015843670291670886
1715269984857237200,0.0462373046875,-0.059470195323228836,-0.028148354962468147,-0.0060379235073924065,-0.06615599989891052,-0.3544323444366455,-0.9327384829521179,0.010903924703598022,-0.013899564743041992,0.01237410306930542,0.9830407842252056,0.18027350210207133,-0.03364848063651889,9.395112966492647e-7
1715269984867227400,0.056227294921875,-0.03075721301138401,-0.030617639422416687,-0.010022145695984364,-0.06657713651657104,-0.35379835963249207,-0.9329491853713989,0.011386103928089142,-0.005775004625320435,0.0167962908744812,0.983094366776763,0.17993962354470927,-0.03386938132844819,-0.000045745815982600746
1715269984877217300,0.06621728515625,-0.014800086617469788,-0.04256404563784599,-0.02200184389948845,-0.06693881750106812,-0.35359805822372437,-0.9329992532730103,0.013273656368255615,0.004309117794036865,0.014603257179260254,0.9831070856190769,0.1798311565453733,-0.03407537174490052,-0.00016866897918882406
1715269984887208200,0.076208251953125,-0.006996705196797848,-0.04337471351027489,-0.03425218164920807,-0.06734618544578552,-0.35361233353614807,-0.9329645037651062,0.008981317281723022,0.004506468772888184,0.014873743057250977,0.9830982303306633,0.17983397491273356,-0.034314384001139744,-0.00034097700614726945
1715269984897200400,0.086200439453125,-0.004096522927284241,-0.04410015791654587,-0.03516405075788498,-0.06764766573905945,-0.3537462055683136,-0.9328919649124146,0.0030877292156219482,0.0021837055683135986,0.01795971393585205,0.9830796888391966,0.1798980063420101,-0.03450693328048432,-0.0005516004022527166
1715269984907190300,0.096190185546875,-0.01678888127207756,-0.05170774459838867,-0.042541004717350006,-0.06790613383054733,-0.3537904620170593,-0.9328564405441284,-0.001414567232131958,-0.004043459892272949,0.011729121208190918,0.983070974949334,0.17994146786217086,-0.034537756348554105,5.551115123125783e-17
1715269984917180400,0.106180419921875,-0.028313178569078445,-0.0513191893696785,-0.03853374719619751,-0.06816205382347107,-0.3537043631076813,-0.9328703880310059,-0.0016621798276901245,-0.008920818567276001,0.00956106185913086,0.9830744434208011,0.17988830903886927,-0.03471306743982633,-0.00024738632482956824
1715269984927170600,0.116170654296875,-0.04458434879779816,-0.04933566600084305,-0.039862535893917084,-0.06835947185754776,-0.35361239314079285,-0.9328908324241638,0.002090543508529663,-0.011530518531799316,0.011168420314788818,0.9830795580263576,0.17983130235514316,-0.03486100365755704,-0.000508273105389756
1715269984937160400,0.126160400390625,-0.042339302599430084,-0.04840515926480293,-0.040402092039585114,-0.06850656121969223,-0.35345450043678284,-0.932939887046814,0.0001624375581741333,-0.010070949792861938,0.008486151695251465,0.9830917911529096,0.17973947168047094,-0.034982737923613796,-0.0007675663935155508
1715269984947150600,0.136150634765625,-0.051247257739305496,-0.04440056160092354,-0.0317167192697525,-0.06862501800060272,-0.35321712493896484,-0.933021068572998,-0.004281491041183472,-0.005669653415679932,0.005286693572998047,0.9831122714478263,0.1796061017293818,-0.0350873113265764,-0.0010147684169898863
1715269984957140500,0.146140380859375,-0.04508070647716522,-0.04247270151972771,-0.027114778757095337,-0.06869100779294968,-0.35282525420188904,-0.9331644773483276,-0.00442911684513092,0.002864837646484375,-0.0022908449172973633,0.9831485023126358,0.17939262936022804,-0.035157542351430746,-0.001224015587604932
1715269984967130400,0.15613037109375,-0.03997867554426193,-0.03973230719566345,-0.018886277452111244,-0.06883668154478073,-0.3524950444698334,-0.933278501033783,-0.006679065525531769,0.011995106935501099,-0.004419803619384766,0.9831772074118228,0.17921317894951086,-0.03526165317347167,-0.0013956078983470288
1715269984977120500,0.16612060546875,-0.022107001394033432,-0.04099038615822792,-0.016371721401810646,-0.06909514218568802,-0.3523094952106476,-0.9333294630050659,-0.012295238673686981,0.014006823301315308,-0.005848944187164307,0.9831900484020453,0.1791117980646401,-0.03541503514685557,-0.0015193800700495919
1715269984987110400,0.1761103515625,-0.013731732964515686,-0.04206150770187378,-0.010850388556718826,-0.0694461390376091,-0.3523057699203491,-0.9333047866821289,-0.012005284428596497,0.015849411487579346,-0.0037068724632263184,0.9831835163584539,0.1791072998177874,-0.03561134597745874,-0.0016158976351964838
1715269984997100300,0.186100341796875,-0.010906385257840157,-0.03677726536989212,-0.004717927426099777,-0.06980432569980621,-0.3524015545845032,-0.9332419633865356,-0.00798499584197998,0.013290166854858398,-0.0059059858322143555,0.9831675248343621,0.17915567552659306,-0.03580877938658793,-0.0016961111628182035
1715269985007090400,0.19609033203125,-0.007151008117944002,-0.02455308847129345,-0.009649036452174187,-0.0700128972530365,-0.3525722026824951,-0.9331618547439575,-0.005609668791294098,0.012240111827850342,-0.005726635456085205,0.9831469525184937,0.17924336618012643,-0.03592889383103841,-0.0017681770092446425
1715269985017080300,0.206080322265625,-0.017738671973347664,-0.015209387987852097,-0.010156102478504181,-0.07013849169015884,-0.3526736795902252,-0.9331141114234924,-0.007345646619796753,0.007596075534820557,-0.010489404201507568,0.9831346775882428,0.17929432311200352,-0.036006993493780934,-0.001843215572651602
1715269985027070200,0.2160703125,-0.03729889541864395,-0.002298116683959961,-0.017641982063651085,-0.07021597027778625,-0.35253459215164185,-0.9331607818603516,-0.012730821967124939,0.0026810169219970703,-0.013936936855316162,0.9831463885105591,0.17921849793636502,-0.03606001129195298,-0.0019210278607758036
1715269985037060600,0.226060546875,-0.05762626975774765,0.012073365971446037,-0.032086435705423355,-0.0701083242893219,-0.3520627021789551,-0.9333470463752747,-0.016088590025901794,0.00017970800399780273,-0.012331664562225342,0.9831935157557363,0.17896573102333982,-0.03602423861443475,-0.002037462376688226
1715269985047050500,0.236050537109375,-0.08186109364032745,0.014329330064356327,-0.03728053346276283,-0.06994672864675522,-0.35127750039100647,-0.9336549639701843,-0.01774553954601288,-0.006815850734710693,-0.008819401264190674,0.9832714259078192,0.17854611929616776,-0.03596943542239894,-0.0022086989174044946
1715269985057040400,0.246040283203125,-0.10863624513149261,0.021038364619016647,-0.039754875004291534,-0.06981693208217621,-0.35023027658462524,-0.9340580105781555,-0.017463356256484985,-0.01994800567626953,0.00017434358596801758,0.9833734271959833,0.17798839801349603,-0.03593226281761536,-0.0023954730537505964
1715269985067030500,0.256030517578125,-0.1294398009777069,0.018911564722657204,-0.03980407491326332,-0.0696733370423317,-0.34893786907196045,-0.9345523118972778,-0.012052759528160095,-0.026077479124069214,0.008786320686340332,0.9834987369738056,0.17730244193572287,-0.03588436368349013,-0.0025693781457705733
1715269985077021400,0.266021484375,-0.13424468040466309,0.008082352578639984,-0.03751908242702484,-0.06953069567680359,-0.3475837707519531,-0.9350674152374268,-0.002643391489982605,-0.021511167287826538,0.011773347854614258,0.9836290413688412,0.17658354459294334,-0.035840719750699135,-0.0027671137157858072
1715269985087011300,0.27601123046875,-0.14134055376052856,0.007512968964874744,-0.031958870589733124,-0.06943310052156448,-0.3462015688419342,-0.9355872869491577,0.007116198539733887,-0.01996368169784546,0.010919928550720215,0.9837607250985534,0.17585123177638678,-0.035814946748586374,-0.002938783478500684
1715269985097001200,0.286001220703125,-0.13868804275989532,0.0018489579670131207,-0.03452429175376892,-0.06940776109695435,-0.34486180543899536,-0.9360837936401367,0.013896271586418152,-0.020464181900024414,0.011874258518218994,0.9838863614639601,0.1751415582500888,-0.03582630577435772,-0.0031125311193158645
1715269985106991400,0.295991455078125,-0.1357007771730423,-0.0172182098031044,-0.04165823757648468,-0.06953107565641403,-0.34362438321113586,-0.9365296363830566,0.02428874373435974,-0.0190618634223938,0.01109933853149414,0.9839988960506507,0.17448500087504235,-0.0359190190436568,-0.003316821242483725
1715269985116981500,0.3059814453125,-0.1730569303035736,-0.04712178185582161,-0.047275111079216,-0.06991972029209137,-0.3423110842704773,-0.9369814991950989,0.035831570625305176,-0.02272498607635498,0.005157828330993652,0.9841128271408257,0.17378718928461231,-0.03615594131231897,-0.003577168393143537
1715269985126971400,0.315971435546875,-0.2773500978946686,-0.054854270070791245,-0.05475406348705292,-0.07048826664686203,-0.3404729962348938,-0.9376084208488464,0.04831723868846893,-0.03660225868225098,-0.011549293994903564,0.9842709034642578,0.17281262260703745,-0.036490851752452536,-0.003892957201719782
1715269985136961500,0.32596142578125,-0.3940194547176361,-0.03321049362421036,-0.06912873685359955,-0.07086626440286636,-0.33762896060943604,-0.9386078715324402,0.05981889367103577,-0.06321948766708374,-0.036535561084747314,0.9845231100591332,0.1713081435978711,-0.0367368760128821,-0.004291510975085677
1715269985146951400,0.335951416015625,-0.4803183674812317,0.01611923985183239,-0.07961440831422806,-0.07077552378177643,-0.33386486768722534,-0.9399601817131042,0.06978368759155273,-0.09937798976898193,-0.07781630754470825,0.9848643082724313,0.16932098212387076,-0.03674681129891426,-0.004741660558063909
1715269985156941300,0.34594140625,-0.5791980028152466,0.05449565872550011,-0.10610486567020416,-0.0701255351305008,-0.3290802538394928,-0.9416945576667786,0.0774955153465271,-0.13347476720809937,-0.14137428998947144,0.9853018863051777,0.16679986924727283,-0.036476405240737086,-0.005260806481039881
1715269985166931500,0.355931396484375,-0.594152569770813,0.1247549057006836,-0.14176718890666962,-0.06888558715581894,-0.32366126775741577,-0.9436621069908142,0.08516670018434525,-0.12589320540428162,-0.20067071914672852,0.9857972626659955,0.1639467297200553,-0.035922384341401395,-0.005912857430005247
1715269985176921300,0.36592138671875,-0.5227502584457397,0.23840157687664032,-0.15119025111198425,-0.06673363596200943,-0.31844884157180786,-0.9455881714820862,0.10288170725107193,-0.14546418190002441,-0.25387465953826904,0.9862812992933577,0.161205764156504,-0.034908698124563556,-0.006593916021503776
1715269985186911200,0.3759111328125,-0.3651268482208252,0.36450597643852234,-0.16586454212665558,-0.06338847428560257,-0.3143167197704315,-0.9471995234489441,0.10661660134792328,-0.14639198780059814,-0.3275044560432434,0.9866853631083685,0.15903597899418148,-0.03328361807265576,-0.007207314801211617
1715269985196901400,0.3859013671875,-0.1711541712284088,0.48840847611427307,-0.17703303694725037,-0.05879850313067436,-0.3118801414966583,-0.9483003616333008,0.08806484937667847,-0.07323652505874634,-0.4165067672729492,0.9869600521609054,0.15775638997648542,-0.031028202444700587,-0.0077609887293923485
1715269985206891300,0.395891357421875,-0.01931941881775856,0.6415823698043823,-0.16714970767498016,-0.05292441323399544,-0.3110946714878082,-0.9489041566848755,0.062216997146606445,-0.00787508487701416,-0.495233416557312,0.9871095834723882,0.15734560846320375,-0.028111822504825856,-0.008180988335574457
1715269985216881400,0.40588134765625,0.05562353506684303,0.8464415073394775,-0.1622454971075058,-0.04538756608963013,-0.3113713264465332,-0.9492038488388062,0.04216794669628143,-0.0032954812049865723,-0.5614162683486938,0.9871836448245848,0.15749987006576338,-0.024328588303691917,-0.008400019428643046
1715269985226871600,0.41587158203125,0.062037061899900436,1.0669276714324951,-0.17377200722694397,-0.0357520617544651,-0.3119582533836365,-0.9494228959083557,0.016724348068237305,-0.0307694673538208,-0.633264422416687,0.987238664747056,0.15782858134741187,-0.01945972620272972,-0.008460846321199977
1715269985236861400,0.425861328125,0.03478653356432915,1.2832355499267578,-0.1862792670726776,-0.024019747972488403,-0.3124391734600067,-0.9496340751647949,-0.01398991048336029,-0.04476913809776306,-0.6932644844055176,0.9872924300908046,0.15811508753942802,-0.013512755662872175,-0.00841897778451034
1715269985246851300,0.435851318359375,-0.01846720650792122,1.4964641332626343,-0.17621472477912903,-0.010258777067065239,-0.3125697672367096,-0.9498394131660461,-0.03269471228122711,-0.06375780701637268,-0.7249652147293091,0.9873461871292812,0.15823367177463685,-0.006511189948098281,-0.008211969881292747
1715269985256842500,0.445842529296875,-0.0550350695848465,1.6864479780197144,-0.16964656114578247,0.005414535291492939,-0.31218692660331726,-0.950005292892456,-0.042966410517692566,-0.0742572546005249,-0.7320168018341064,0.9873914994005222,0.1580984929315591,0.0014926831432999083,-0.0078014972241644
1715269985266832400,0.455832275390625,-0.0668831542134285,1.858705759048462,-0.150966614484787,0.022726459428668022,-0.3115547001361847,-0.9499564170837402,-0.05394594371318817,-0.07022026181221008,-0.7124733328819275,0.9873837684366642,0.15784317156552755,0.010359707303498666,-0.007185759963723559
1715269985276822300,0.465822265625,-0.05262032896280289,2.0077900886535645,-0.12704265117645264,0.04149411618709564,-0.31092721223831177,-0.9495275020599365,-0.059301115572452545,-0.058472901582717896,-0.6895715594291687,0.9872809116260237,0.1575948619303605,0.02000244077845413,-0.00633922725974051
1715269985286812400,0.4758125,0.014211485162377357,2.158179521560669,-0.10387973487377167,0.06161216273903847,-0.3106079399585724,-0.9485391974449158,-0.06609824299812317,-0.030578643083572388,-0.668266773223877,0.9870369186481048,0.1575057627276448,0.030369829026036528,-0.0052692650014840026
1715269985296802300,0.48580224609375,0.10997742414474487,2.2671091556549072,-0.08621817827224731,0.08286689966917038,-0.31115204095840454,-0.946740448474884,-0.08121894299983978,-0.004231929779052734,-0.6421724557876587,0.9865872973225256,0.15785901125550547,0.04135575191254795,-0.00400605186138181
1715269985306792400,0.49579248046875,0.18440574407577515,2.3622794151306152,-0.07253998517990112,0.10500112920999527,-0.3124570846557617,-0.9441108703613281,-0.09726490825414658,0.011904686689376831,-0.6204643249511719,0.9859254573876898,0.15859800809851252,0.05283209128837878,-0.0025981493222063112
1715269985316782600,0.505782470703125,0.26285821199417114,2.4501538276672363,-0.053001172840595245,0.12785914540290833,-0.31449392437934875,-0.9406092166900635,-0.10725975036621094,0.026728332042694092,-0.576587438583374,0.985039957527224,0.15970467999913207,0.06472882240228352,-0.0010588078459461414
1715269985326772500,0.5157724609375,0.32371553778648376,2.5237925052642822,-0.038338273763656616,0.15132267773151398,-0.31717851758003235,-0.9362154006958008,-0.11691407859325409,0.03595897555351257,-0.5237913131713867,0.9839244937845013,0.1611330574965317,0.07699641236401668,0.0006039510959411354
1715269985336762400,0.525762451171875,0.3559323251247406,2.5805318355560303,-0.029489655047655106,0.1752435266971588,-0.32031509280204773,-0.9309607744216919,-0.14178098738193512,0.04678601026535034,-0.46903306245803833,0.9825859218536639,0.16278052982379337,0.0895661999502418,0.002363452139262978
1715269985346752500,0.53575244140625,0.34920114278793335,2.641690254211426,-0.01646752841770649,0.1995217204093933,-0.3235395848751068,-0.9249396324157715,-0.16883626580238342,0.05023932456970215,-0.414644718170166,0.9810465682746254,0.16445529044544852,0.10239460304878477,0.004214000316904498
1715269985356742400,0.545742431640625,0.35140305757522583,2.6841232776641846,0.005049748346209526,0.22409121692180634,-0.3267359137535095,-0.9181649088859558,-0.19149839878082275,0.04249510169029236,-0.3679221272468567,0.9793080156409077,0.16608979270018429,0.11546311403932374,0.006191506379773115
1715269985366732300,0.555732177734375,0.37191399931907654,2.711538314819336,0.025072457268834114,0.24870672821998596,-0.33003365993499756,-0.9106166958808899,-0.21184147894382477,0.04818850755691528,-0.31211578845977783,0.9773636431229223,0.1677472182902446,0.12865660712923832,0.008291810178342851
1715269985376722400,0.565722412109375,0.4402983784675598,2.7180373668670654,0.050651054829359055,0.2731688916683197,-0.33377605676651,-0.902204155921936,-0.22293689846992493,0.07832860946655273,-0.25660932064056396,0.9751882613766473,0.1696071082927504,0.14188498543009745,0.010495609712878384
1715269985386712300,0.57571240234375,0.5758010745048523,2.706986904144287,0.09476251900196075,0.2972649335861206,-0.33852002024650574,-0.8927697539329529,-0.22734910249710083,0.11706915497779846,-0.20030885934829712,0.9727392186251632,0.17196462092436957,0.15505900381999216,0.01279046813844098
1715269985396702200,0.5857021484375,0.7037715315818787,2.669527769088745,0.12847468256950378,0.32074597477912903,-0.3445453941822052,-0.8822757601737976,-0.23288580775260925,0.15739625692367554,-0.14914202690124512,0.9700045606016423,0.17497639279048294,0.16806359472465257,0.015141838197462898
1715269985406692600,0.595692626953125,0.8234771490097046,2.6153452396392822,0.17487646639347076,0.34336233139038086,-0.35177329182624817,-0.8708374500274658,-0.23771044611930847,0.1946382224559784,-0.0885130763053894,0.9670116716211017,0.1786094981890385,0.18077585682623065,0.017530961769531894
1715269985416682500,0.6056826171875,0.8999497890472412,2.5581564903259277,0.22556520998477936,0.36499008536338806,-0.35994890332221985,-0.8586146235466003,-0.23788434267044067,0.21291512250900269,-0.028195679187774658,0.9637980076442304,0.18272211377732428,0.1931458513848802,0.020022412399350598
1715269985426673400,0.61567333984375,0.9591678380966187,2.4973649978637695,0.27569255232810974,0.3856084644794464,-0.3688080310821533,-0.8457462787628174,-0.24577686190605164,0.23466795682907104,0.026318848133087158,0.960396304815521,0.18717344410652914,0.20516568758015827,0.02263213574640527
1715269985436663300,0.625663330078125,1.018135905265808,2.4288270473480225,0.3373630940914154,0.4051054120063782,-0.3783116638660431,-0.8323280215263367,-0.2649991512298584,0.2619938254356384,0.08600544929504395,0.9568277915405902,0.1919376654037312,0.21678542614589966,0.025391665975257105
1715269985446653400,0.6356533203125,1.0777883529663086,2.354830026626587,0.40374505519866943,0.4234093129634857,-0.3884834349155426,-0.8184162974357605,-0.28475263714790344,0.28362494707107544,0.14088034629821777,0.953103827693796,0.19702766447625136,0.22797356492427123,0.02830981945263783
1715269985456643300,0.645643310546875,1.1314033269882202,2.2954602241516113,0.4820859432220459,0.44050541520118713,-0.3993453085422516,-0.8040387630462646,-0.30123841762542725,0.3020857572555542,0.18154126405715942,0.9492267462156865,0.20244750443848736,0.23873757944512042,0.031432300161189586
1715269985466633200,0.65563330078125,1.179314136505127,2.2516727447509766,0.564642608165741,0.45649033784866333,-0.4108799695968628,-0.7891731858253479,-0.30883094668388367,0.31105688214302063,0.20639431476593018,0.9451844448155733,0.208172976393607,0.24915340392179522,0.0348304440520355
1715269985476623400,0.665623291015625,1.1748336553573608,2.194140911102295,0.6412345767021179,0.4713239073753357,-0.4229331612586975,-0.7739388346672058,-0.3174847364425659,0.32249975204467773,0.21925139427185059,0.9410026691852844,0.21411554275776537,0.2592009040294102,0.038515629991991485
1715269985486613500,0.675613525390625,1.1382499933242798,2.1438047885894775,0.7177205085754395,0.48502665758132935,-0.4350360929965973,-0.7586124539375305,-0.32236790657043457,0.3228991627693176,0.2425144910812378,0.9367481480928321,0.21999600546062797,0.268878277244804,0.042536683381242946
1715269985496603400,0.685603271484375,1.100207805633545,2.0792248249053955,0.7901859283447266,0.4975317120552063,-0.4471212327480316,-0.7433335781097412,-0.3162267506122589,0.32032060623168945,0.27568233013153076,0.9324527588240235,0.22576847525830773,0.278139883666167,0.04689070798540784
1715269985506593500,0.695593505859375,1.0619544982910156,2.016857862472534,0.8636988997459412,0.5088221430778503,-0.4592503011226654,-0.7281409502029419,-0.30415594577789307,0.31215548515319824,0.29520344734191895,0.9281232151777716,0.23146725948657482,0.28697111055846525,0.05155577911578446
1715269985516583400,0.70558349609375,1.0235240459442139,1.9442070722579956,0.9218963980674744,0.5189371705055237,-0.4713345170021057,-0.7131255269050598,-0.2930154800415039,0.30298423767089844,0.3081573247909546,0.9237812233362341,0.23704943495963604,0.29537231363845917,0.056489547469819434
1715269985526573300,0.7155732421875,1.0238120555877686,1.848476529121399,0.9597419500350952,0.527820348739624,-0.48345109820365906,-0.698341429233551,-0.28685349225997925,0.3095923662185669,0.3369981050491333,0.9194453223895158,0.24259457390098532,0.3032773832205349,0.06157102063426745
1715269985536563500,0.7255634765625,1.0469017028808594,1.7650461196899414,0.9796559810638428,0.5355469584465027,-0.49572402238845825,-0.68370121717453,-0.2802368402481079,0.2962305545806885,0.3556067943572998,0.915100597390963,0.24822980870280967,0.31069496585108236,0.06664659699268738
1715269985546553300,0.73555322265625,1.0598140954971313,1.6752816438674927,0.9992730021476746,0.5422095656394958,-0.5081856846809387,-0.669145941734314,-0.2765692472457886,0.25495070219039917,0.35495227575302124,0.9107353728410856,0.2540046895508671,0.3176612209808152,0.0716542436995708
1715269985556543200,0.745543212890625,1.0432658195495605,1.5878777503967285,1.0155872106552124,0.5478301644325256,-0.5206354856491089,-0.6548442244529724,-0.2691587805747986,0.2050226330757141,0.3570995330810547,0.9063936348455058,0.2597932516350779,0.3241686904711211,0.0766354223618877
1715269985566533400,0.755533447265625,1.0227640867233276,1.457400918006897,1.0104538202285767,0.5523643493652344,-0.532868504524231,-0.6410498023033142,-0.2571830153465271,0.1618356704711914,0.3719611167907715,0.9021510410376348,0.2654941298372718,0.3301332729179083,0.08153810263578998
1715269985576523300,0.765523193359375,1.0461540222167969,1.3488656282424927,1.016322374343872,0.5557773113250732,-0.5449931621551514,-0.6277692914009094,-0.2437502145767212,0.11370337009429932,0.3810347318649292,0.8980251051113148,0.271225170509834,0.33548811358262287,0.08623126836792638
1715269985586514400,0.775514404296875,0.9709532260894775,1.2752716541290283,1.0060744285583496,0.5583322048187256,-0.5569067597389221,-0.6149147152900696,-0.2432534098625183,0.07659053802490234,0.35328763723373413,0.8939826357246455,0.27688401680790387,0.3404083929724733,0.09084344661578236
1715269985596504600,0.785504638671875,0.8324105739593506,1.175565481185913,0.9678800702095032,0.5602561831474304,-0.5678523182868958,-0.6030396223068237,-0.2541801333427429,0.08575081825256348,0.3354921340942383,0.8901797259383629,0.2819929274493759,0.34490604589495427,0.09539346599917159
1715269985606494500,0.795494384765625,0.6451042890548706,1.1041315793991089,0.9381373524665833,0.5616444945335388,-0.5774475336074829,-0.5925452709197998,-0.26031386852264404,0.05481863021850586,0.3506477475166321,0.886728884512755,0.28628266289854865,0.3489550204740475,0.0999230582956222
1715269985616484400,0.805484375,0.49408602714538574,1.0226515531539917,0.9134746193885803,0.5625241994857788,-0.5859211087226868,-0.583320677280426,-0.25696688890457153,-0.009400606155395508,0.3508684039115906,0.8835883771174804,0.28983245219009457,0.3526142371200298,0.10455610972801366
1715269985626474500,0.815474609375,0.4096715748310089,0.9116668105125427,0.8856855034828186,0.5628252625465393,-0.5935510993003845,-0.5752606987953186,-0.2509813904762268,-0.035797715187072754,0.35416096448898315,0.8807499553944889,0.2928705427436356,0.3558040192116654,0.10913267070230898
1715269985636464400,0.82546435546875,0.3515331745147705,0.7952861785888672,0.8535749912261963,0.5625181198120117,-0.600583553314209,-0.568219006061554,-0.24443334341049194,-0.04577881097793579,0.352566659450531,0.8781927440159375,0.29560300892583025,0.35848201429919335,0.11352134049623042
1715269985646454300,0.835454345703125,0.2947178781032562,0.6776926517486572,0.828890323638916,0.5616153478622437,-0.6071029901504517,-0.5621514916419983,-0.24234038591384888,-0.06468057632446289,0.35080212354660034,0.8759103134440546,0.298086787281557,0.3606501299388283,0.1177157232304819
1715269985656443600,0.845443603515625,0.23299433290958405,0.5616979002952576,0.8104753494262695,0.5600928068161011,-0.6131597757339478,-0.5570738315582275,-0.23842215538024902,-0.08236640691757202,0.3494476079940796,0.8739100493735157,0.30034930494515566,0.3622890820205884,0.12173047549531368
1715269985666433500,0.85543359375,0.18644146621227264,0.4322762191295624,0.7935701012611389,0.5579126477241516,-0.6187735199928284,-0.5530397891998291,-0.23303771018981934,-0.0899820327758789,0.3566897511482239,0.8722074023984022,0.30239215557942545,0.3633718475493671,0.1255961190654486
1715269985676423400,0.86542333984375,0.14438508450984955,0.2772115468978882,0.7626875638961792,0.5550528168678284,-0.62403804063797,-0.5499937534332275,-0.2356710433959961,-0.08949357271194458,0.3758910298347473,0.8708043507240424,0.30431928627295746,0.3638583568904519,0.1292163774760845
1715269985686413600,0.87541357421875,-0.01332341693341732,0.10393111407756805,0.7478146553039551,0.5513826012611389,-0.6286073923110962,-0.5484799146652222,-0.24600833654403687,-0.09787893295288086,0.38702672719955444,0.8698496945682805,0.3058748413925318,0.3635940355683748,0.1326714959104231
1715269985696403500,0.885403564453125,-0.2571414113044739,-0.09032118320465088,0.710453450679779,0.5468131303787231,-0.6319055557250977,-0.5492640137672424,-0.2538442611694336,-0.1162635087966919,0.4104701280593872,0.8695466947687691,0.3066326129011199,0.36241473295437593,0.13609108115939172
1715269985706393600,0.8953935546875,-0.6485615372657776,-0.3049868941307068,0.698087751865387,0.5412998795509338,-0.6332740783691406,-0.553135097026825,-0.26169782876968384,-0.18590933084487915,0.4273722767829895,0.8700944124252366,0.3060991882110565,0.36018848816728427,0.13965422398665062
1715269986955154200,2.144154296875,0.12946878373622894,1.4343491792678833,3.2831265926361084,-0.04269304499030113,-0.7601839900016785,-0.6483036875724792,-0.20797836780548096,-0.14713424444198608,-0.0746118426322937,0.9075672561221377,0.4179986964909288,-0.03354455261920261,-0.021764216708493933
1715269986965144000,2.15414404296875,-0.00868685357272625,1.4183688163757324,3.179481267929077,-0.05799790099263191,-0.7589020729064941,-0.6486170291900635,-0.20825272798538208,-0.1521087884902954,-0.03288620710372925,0.9079050262167078,0.4177870438873387,-0.03384496954571897,-0.004138635142369562
1715269986975134200,2.16413427734375,-0.07326344400644302,1.3776490688323975,3.105464220046997,-0.07269389927387238,-0.7565693855285645,-0.6498603224754333,-0.18984884023666382,-0.1814495325088501,0.0406532883644104,0.9081635160968831,0.41702579681093144,-0.03404886685088615,0.013008817199602563
1715269986985124000,2.1741240234375,-0.04512491822242737,1.3151905536651611,3.0243887901306152,-0.08706127852201462,-0.7536696791648865,-0.6514617800712585,-0.17598500847816467,-0.2045823335647583,0.07681584358215332,0.9082111448380814,0.41604293158375744,-0.034313077009230974,0.029725586023071127
1715269986995114000,2.184114013671875,0.08939800411462784,1.2348506450653076,2.8830766677856445,-0.10094966739416122,-0.7509973049163818,-0.6525428891181946,-0.20443972945213318,-0.14180970191955566,0.09219437837600708,0.9078408213373659,0.41536485595262007,-0.03464944959439162,0.04578781770030671
1715269987005104000,2.194104248046875,0.2522684335708618,1.1214181184768677,2.7799417972564697,-0.11445149779319763,-0.7490633726119995,-0.6525373458862305,-0.25650495290756226,-0.09552597999572754,0.10274803638458252,0.9069396518151593,0.415327642683876,-0.03513214940792167,0.061067471386539784
1715269987015095300,2.20409521484375,0.40071728825569153,1.0687134265899658,2.7326760292053223,-0.1278948038816452,-0.7478926181793213,-0.6513829231262207,-0.279270738363266,-0.09779536724090576,0.09907591342926025,0.9055012334995897,0.4159685599524351,-0.03575873778336924,0.0758899194034825
1715269987025085200,2.214085205078125,0.37331244349479675,0.9981511235237122,2.650330066680908,-0.1413261443376541,-0.7468314170837402,-0.6498229503631592,-0.25091633200645447,-0.1365610957145691,0.08837592601776123,0.9037489104604874,0.41683631557764145,-0.0365513595368778,0.09027482232243544
1715269987035075000,2.224074951171875,0.30978459119796753,0.950635552406311,2.521554470062256,-0.15431144833564758,-0.7452114820480347,-0.6487279534339905,-0.2089546024799347,-0.14845013618469238,0.06462156772613525,0.9019645587698134,0.41741791342071677,-0.03739413178738071,0.10403851522885676
1715269987045065200,2.234065185546875,0.22005802392959595,0.9602679014205933,2.380382776260376,-0.16631481051445007,-0.7430332899093628,-0.6482599973678589,-0.20278006792068481,-0.16637539863586426,0.05881303548812866,0.9002300337131743,0.41763968788814976,-0.038040718468038526,0.1171153228338132
1715269987055055000,2.24405517578125,0.04378151893615723,0.9161174893379211,2.2592475414276123,-0.1773923635482788,-0.7399142384529114,-0.6488905549049377,-0.20697659254074097,-0.22520428895950317,0.03170311450958252,0.8987060476108445,0.417213478190521,-0.038569708883824105,0.12951008122298996
1715269987065045000,2.254044921875,-0.06150601804256439,0.8916787505149841,2.151529312133789,-0.18778860569000244,-0.735773503780365,-0.6506710648536682,-0.20405712723731995,-0.22780388593673706,0.006551921367645264,0.8974281965123508,0.4160934409087046,-0.039124209385222986,0.1412738701924377
1715269987075035100,2.26403515625,-0.08804947882890701,0.873094916343689,2.035130500793457,-0.1973654180765152,-0.7312400937080383,-0.6529433131217957,-0.22779026627540588,-0.19165736436843872,0.0026748180389404297,0.8962290999133082,0.41468426423698157,-0.039563849094408715,0.15246403914302198
1715269987085025000,2.27402490234375,-0.043878450989723206,0.8688759207725525,1.9548910856246948,-0.20617197453975677,-0.7267681360244751,-0.6552109122276306,-0.2712603211402893,-0.16930437088012695,-0.01135396957397461,0.8949751439350705,0.4132891882302071,-0.039832189156456255,0.16317186135865647
1715269987095015200,2.28401513671875,0.04017037898302078,0.8329765200614929,1.8716593980789185,-0.21445828676223755,-0.7227045893669128,-0.6570432782173157,-0.29623815417289734,-0.13332891464233398,-0.01141369342803955,0.8935462479559542,0.41216487881788544,-0.03998099824061965,0.17348462623599215
1715269987105005300,2.29400537109375,0.18493853509426117,0.8292430639266968,1.7612369060516357,-0.2220776230096817,-0.7194725871086121,-0.6580584049224854,-0.294020414352417,-0.09131848812103271,-0.012946784496307373,0.8918646119887943,0.41155588148608024,-0.03990698215691821,0.18332184533984525
1715269987114995200,2.3039951171875,0.2706547677516937,0.8052698373794556,1.6551434993743896,-0.2289646416902542,-0.717164933681488,-0.6582170724868774,-0.27904626727104187,-0.08848392963409424,-0.029115021228790283,0.8899425899871682,0.4114923793569226,-0.039566381045445215,0.19264150138769381
1715269987124986000,2.313986083984375,0.2725693881511688,0.7984193563461304,1.546075463294983,-0.23519617319107056,-0.7152494192123413,-0.6581042408943176,-0.2527036666870117,-0.11876559257507324,-0.0504833459854126,0.8879572234728295,0.41160998254719505,-0.03905246311092775,0.20145568290490584
1715269987134976300,2.323976318359375,0.2636041045188904,0.8312627673149109,1.4051792621612549,-0.24035894870758057,-0.7134981155395508,-0.6581399440765381,-0.23801939189434052,-0.12359923124313354,-0.04620563983917236,0.8860505050067119,0.41166881666986477,-0.03819431322905317,0.20972534690962247
1715269987144966100,2.333966064453125,0.2340637445449829,0.8722962737083435,1.266263484954834,-0.2442484050989151,-0.7119113802909851,-0.6584261655807495,-0.25216585397720337,-0.14692968130111694,-0.03713041543960571,0.8842755314658721,0.4116127639114351,-0.036903284944708376,0.2174167944659462
1715269987154956000,2.3439560546875,0.17138437926769257,0.9420892000198364,1.1323914527893066,-0.2468280792236328,-0.7103181481361389,-0.659184455871582,-0.25593382120132446,-0.19284963607788086,-0.030650079250335693,0.8826896003541899,0.4113053049836122,-0.03515285000888596,0.22461414035846533
1715269987164946200,2.3539462890625,-0.04145444184541702,0.9673241972923279,0.9772703051567078,-0.24799256026744843,-0.7082009315490723,-0.6610229015350342,-0.23171329498291016,-0.22087633609771729,-0.035128772258758545,0.8814926555468485,0.410364674381923,-0.0330057528450802,0.23126247373768904
1715269987174936000,2.36393603515625,-0.3114853799343109,0.8131847381591797,0.8576035499572754,-0.24841874837875366,-0.7047778367996216,-0.6645120978355408,-0.17763720452785492,-0.2452191710472107,-0.025276601314544678,0.8809406957701421,0.4083831679761197,-0.031098796990516653,0.23706457280979287
1715269987184926000,2.373926025390625,-0.541204571723938,0.7523935437202454,0.816783607006073,-0.24917639791965485,-0.699831485748291,-0.669437825679779,-0.13043178617954254,-0.25852733850479126,0.061802446842193604,0.880927438385458,0.40544432554384485,-0.029932820404543564,0.24225164143860478
1715269987194916400,2.383916259765625,-0.7715765237808228,0.8115434050559998,0.7023702263832092,-0.24921640753746033,-0.6935111284255981,-0.675968587398529,-0.18485040962696075,-0.29191678762435913,0.1298261284828186,0.8814349796915286,0.4014785458252804,-0.028821393435809278,0.24709669792088929
1715269987204906200,2.39390625,-0.9198852777481079,0.7759729027748108,0.5909351706504822,-0.24821041524410248,-0.6860842704772949,-0.6838713884353638,-0.2461743950843811,-0.31238996982574463,0.13498228788375854,0.8824539165452026,0.39661114200801506,-0.02763898363877601,0.25141775129951816
1715269987214896000,2.403896240234375,-0.856828510761261,0.6624774932861328,0.489646315574646,-0.24692495167255402,-0.6785567998886108,-0.6918011903762817,-0.18909497559070587,-0.2806107997894287,0.1568586230278015,0.8836464958018604,0.3916486444074728,-0.02665973611759026,0.25508754965115044
1715269987224886300,2.41388623046875,-0.6841209530830383,0.5959325432777405,0.39946112036705017,-0.2455427497625351,-0.6720987558364868,-0.6985642910003662,-0.13487417995929718,-0.21466583013534546,0.1727312207221985,0.8846676898622265,0.38736992594380226,-0.02573730905840335,0.25815738218479933
1715269987234877200,2.423877197265625,-0.5030100345611572,0.5340678691864014,0.33779215812683105,-0.24401096999645233,-0.6670299172401428,-0.7039387822151184,-0.15821076929569244,-0.15067344903945923,0.17011010646820068,0.8854129967966469,0.3839535755189404,-0.024703607488733653,0.2607934758424868
1715269987244867000,2.4338671875,-0.3022139072418213,0.4553365409374237,0.29912644624710083,-0.24263083934783936,-0.663403332233429,-0.7078321576118469,-0.18218913674354553,-0.0867035984992981,0.1619185209274292,0.8858318668546135,0.38147674599961734,-0.023651659134946074,0.2630934382836809
1715269987254857000,2.44385693359375,-0.11244957149028778,0.40772294998168945,0.24497666954994202,-0.24139881134033203,-0.6612845659255981,-0.7102319598197937,-0.17414383590221405,-0.053559303283691406,0.13715767860412598,0.8859098276565899,0.37996836526384414,-0.022539957367178898,0.26510373725472214
1715269987264847000,2.45384716796875,-0.059074558317661285,0.3488665521144867,0.17124605178833008,-0.2400696724653244,-0.6602265238761902,-0.7116653919219971,-0.14811396598815918,-0.06358951330184937,0.09591227769851685,0.8858226682809716,0.3790928010332343,-0.021353020095626923,0.26674166232628876
1715269987274837200,2.463837158203125,-0.07278450578451157,0.2721337080001831,0.12627725303173065,-0.2388107180595398,-0.6594242453575134,-0.7128318548202515,-0.11313332617282867,-0.08399933576583862,0.07098621129989624,0.8857856579810428,0.3783785909459245,-0.020340053833706573,0.2679549808938886
1715269987284827100,2.4738271484375,-0.1130654513835907,0.2467671036720276,0.11709126085042953,-0.23778074979782104,-0.6584761142730713,-0.7140514850616455,-0.08820806443691254,-0.11801320314407349,0.09217965602874756,0.8858222478842872,0.3776132713951836,-0.019556718603358503,0.26896987794297506
1715269987294817300,2.4838173828125,-0.172551691532135,0.22423063218593597,0.08444676548242569,-0.2367471307516098,-0.6572121977806091,-0.7155577540397644,-0.08892121911048889,-0.15379250049591064,0.08324891328811646,0.8859816331189995,0.37664868296784637,-0.018891329522924938,0.2698434891476157
1715269987304807200,2.49380712890625,-0.20874671638011932,0.16145940124988556,0.047391943633556366,-0.23577594757080078,-0.6556646823883057,-0.7172960638999939,-0.0774107575416565,-0.1402032971382141,0.07047605514526367,0.8862784266540797,0.3755169065983155,-0.018412471120136997,0.2704788957494303
1715269987314797000,2.503797119140625,-0.19935055077075958,0.10572288930416107,0.013764743693172932,-0.2350209355354309,-0.6541094183921814,-0.718961775302887,-0.04815171658992767,-0.09180128574371338,0.07298105955123901,0.8866387442903733,0.37441848674624634,-0.018163032453484107,0.27083710502429875
1715269987324787200,2.513787109375,-0.173118457198143,0.05079412832856178,0.009055675007402897,-0.23451754450798035,-0.6527243852615356,-0.7203835248947144,-0.024897173047065735,-0.049759864807128906,0.060624122619628906,0.8869880754795856,0.3734715050910321,-0.018090311153219657,0.2710056414159755
1715269987334777000,2.523777099609375,-0.10424911975860596,0.009345490485429764,-0.0007849714020267129,-0.2343207448720932,-0.6517005562782288,-0.7213738560676575,-0.02307981252670288,-0.009218692779541016,0.043303847312927246,0.8872499618960409,0.37280493035243856,-0.01815403874244978,0.27106186552912814
1715269987344768000,2.53376806640625,-0.02284799888730049,-0.023305397480726242,-0.005687518045306206,-0.2343474179506302,-0.6512487530708313,-0.7217731475830078,-0.035809487104415894,0.015369117259979248,0.03567701578140259,0.8873759610393879,0.3725314583018279,-0.01826849393076513,0.27101788589217646
1715269987354758100,2.543758056640625,0.07021110504865646,0.014859032817184925,-0.06830322742462158,-0.2343476563692093,-0.6514175534248352,-0.7216207385063171,-0.04626151919364929,0.01489710807800293,0.024935007095336914,0.8873689247226766,0.37263281906893253,-0.01828716457558968,0.27090036943007734
1715269987364748300,2.553748291015625,0.13081543147563934,-0.04490363225340843,-0.15950290858745575,-0.23363393545150757,-0.652565598487854,-0.7208144664764404,-0.04351149499416351,0.006737232208251953,0.01456141471862793,0.8873205070868115,0.37318912214272537,-0.01796264185926935,0.2703142817481929
1715269987374738200,2.56373828125,0.050560276955366135,-0.05109415203332901,-0.02730572782456875,-0.23328331112861633,-0.6534159183502197,-0.7201573848724365,-0.03177715837955475,-0.022716403007507324,0.0014380216598510742,0.887297669106554,0.37363420107246564,-0.01785450264819216,0.2697809609358389
1715269987384728300,2.573728271484375,0.07957307994365692,-0.03726409003138542,0.01915704645216465,-0.2336975634098053,-0.6538031101226807,-0.7196715474128723,-0.017523184418678284,-0.009939074516296387,-0.00293886661529541,0.8871670889231954,0.3739520498199814,-0.018002614441556902,0.2697603993790191
1715269987394718200,2.58371826171875,0.09859923273324966,-0.03810911253094673,-0.06207628920674324,-0.23375506699085236,-0.6545484066009521,-0.7189749479293823,-0.04166610538959503,0.015098273754119873,-0.021167755126953125,0.8870298289484129,0.37441863576768536,-0.01797816016230308,0.26956556714039986
1715269987404708000,2.5937080078125,0.07081686705350876,-0.039568256586790085,-0.032435376197099686,-0.23380927741527557,-0.6554365754127502,-0.7181478142738342,-0.07037472724914551,-0.008839666843414307,-0.036887526512145996,0.8868897136221666,0.3749707592399154,-0.017973108264352278,0.26925959632826124
1715269987414698200,2.6036982421875,0.09738483279943466,-0.053717099130153656,0.0088175218552351,-0.2341870665550232,-0.6561090350151062,-0.7174102663993835,-0.05284607410430908,0.017681121826171875,-0.03332209587097168,0.8867219306882982,0.3754561656190213,-0.01809816962309141,0.2691272627284448
1715269987424688000,2.613688232421875,0.14375780522823334,-0.04997029900550842,0.03888620808720589,-0.23487290740013123,-0.6569055914878845,-0.716456413269043,-0.031515076756477356,0.04981929063796997,-0.037312448024749756,0.8864443336606478,0.37608151052824224,-0.01828877927288683,0.26915565787192486
1715269987434678000,2.623677978515625,0.1752110719680786,-0.02329660952091217,0.046638671308755875,-0.23566745221614838,-0.6579188108444214,-0.7152647376060486,-0.035389721393585205,0.04680424928665161,-0.042746007442474365,0.886056049682447,0.3768657701980954,-0.01843400579939622,0.26932709709421254
1715269987444668200,2.633668212890625,0.18587665259838104,-0.011054590344429016,0.049300167709589005,-0.23620161414146423,-0.6590684652328491,-0.7140291333198547,-0.044834792613983154,0.04700779914855957,-0.04620945453643799,0.88565263542805,0.37768532156549883,-0.018417911783585983,0.2695072655565378
1715269987454659300,2.643659423828125,0.16744545102119446,0.01119212619960308,0.08112628012895584,-0.23671481013298035,-0.6602300405502319,-0.7127850651741028,-0.044031694531440735,0.028363466262817383,-0.03890860080718994,0.8852047950630744,0.3785122159344678,-0.01832976613151538,0.26982433833546127
1715269987464649200,2.653649169921875,0.08519063889980316,0.040576379746198654,0.13581721484661102,-0.2373579889535904,-0.6608269214630127,-0.7120175957679749,-0.03174605965614319,-0.0020302534103393555,-0.03244340419769287,0.8848199883400796,0.3790196985301459,-0.018310653241976532,0.2703747675710876
1715269987474639000,2.66363916015625,0.03337457776069641,0.06400847434997559,0.15564604103565216,-0.2383720874786377,-0.6605075001716614,-0.7119751572608948,-0.024948880076408386,-0.010772466659545898,-0.02278125286102295,0.884537631593064,0.3790382140882034,-0.01850564571404395,0.2712578816607998
1715269987484629200,2.673629150390625,0.015030832961201668,0.08717024326324463,0.11884336173534393,-0.23966658115386963,-0.6598265171051025,-0.7121719717979431,-0.02598896622657776,-0.006173908710479736,-0.025254666805267334,0.884298543087099,0.3788900343548943,-0.018877010349652695,0.2722171828810733
1715269987494619100,2.683619140625,0.04523667320609093,0.08524797856807709,0.06815994530916214,-0.24033859372138977,-0.6591610908508301,-0.7125616073608398,-0.022387266159057617,-0.009707987308502197,-0.030648112297058105,0.8841753124198528,0.3786258731560007,-0.019016864779413417,0.27297410075517137
1715269987504609000,2.693609130859375,0.06143982335925102,0.06520210206508636,0.050570692867040634,-0.24051737785339355,-0.6587139368057251,-0.7129147052764893,-0.012412339448928833,-0.017616689205169678,-0.029791533946990967,0.8841074655394734,0.37839561187733745,-0.018958321981862675,0.27351664596771086
1715269987514599200,2.70359912109375,0.13505065441131592,0.04993179813027382,0.05477076396346092,-0.24077162146568298,-0.6586822271347046,-0.712858259677887,-0.0012175440788269043,-0.001321554183959961,-0.03103816509246826,0.8839460065298963,0.3784362378907681,-0.01889167620372534,0.27398695095140113
1715269987524589000,2.713589111328125,0.21363046765327454,0.0511869452893734,0.05078001692891121,-0.24115648865699768,-0.6592511534690857,-0.7122020125389099,-0.005181446671485901,0.018000423908233643,-0.026491165161132812,0.8836113905614464,0.3788753412883813,-0.018774549656305345,0.27446716504548
1715269987534579000,2.723578857421875,0.26270294189453125,0.05595400556921959,0.042340993881225586,-0.24144063889980316,-0.6604290008544922,-0.7110133767127991,-0.021651461720466614,0.011533677577972412,-0.027893424034118652,0.8831411276915763,0.3796716606330338,-0.018512884853032874,0.27489760338118013
1715269987544569300,2.7335693359375,0.2771976590156555,0.06398796290159225,0.02771291695535183,-0.2414439618587494,-0.6620796322822571,-0.7094755172729492,-0.027400687336921692,0.017777085304260254,-0.022717416286468506,0.8825980476405059,0.38070492337080664,-0.018055361540976783,0.27524297168855016
1715269987554559200,2.743559326171875,0.25291603803634644,0.0767144113779068,0.03305282071232796,-0.24129362404346466,-0.6637893915176392,-0.707927405834198,-0.02585729956626892,0.0034499168395996094,-0.014850854873657227,0.8820564155508461,0.38174541789865396,-0.01751373810737744,0.2755729490809363
1715269987564550100,2.753550048828125,0.23466375470161438,0.08914577960968018,0.04364407807588577,-0.24118965864181519,-0.6651936173439026,-0.7066435813903809,-0.023123130202293396,-0.006361067295074463,-0.006109654903411865,0.8815610946972019,0.3826078546618039,-0.017012748262832694,0.27599289489651485
1715269987574540000,2.7635400390625,0.17778688669204712,0.10261978209018707,-0.002625947818160057,-0.24084921181201935,-0.6663587689399719,-0.7056612968444824,-0.021220549941062927,-0.00012999773025512695,0.011355936527252197,0.8811711119671104,0.38327312687826154,-0.016464096036197834,0.2763484134782499
1715269987584530200,2.7735302734375,0.12368088215589523,0.12308962643146515,-0.04211103916168213,-0.2399536520242691,-0.6672752499580383,-0.7051000595092773,-0.017385870218276978,-0.006491959095001221,0.02533632516860962,0.8809629696228309,0.3836682598988526,-0.015767958322718212,0.2765040753213627
1715269987594520000,2.78352001953125,0.0715859904885292,0.1379157155752182,-0.0851900726556778,-0.2385665774345398,-0.6677555441856384,-0.7051160335540771,-0.008854717016220093,-0.014434516429901123,0.033683598041534424,0.8809583832094823,0.3836901602117274,-0.014961266619578417,0.2765331174981909
1715269987604510000,2.793510009765625,0.002943171188235283,0.15825854241847992,-0.13355299830436707,-0.236871600151062,-0.6678733825683594,-0.705575704574585,-0.0015470385551452637,-0.008609950542449951,0.04473292827606201,0.8811299423535199,0.3834217723210961,-0.014137813636516311,0.2764020153675586
1715269987614500000,2.8035,-0.041752927005290985,0.1772431582212448,-0.12430038303136826,-0.23505006730556488,-0.6676915287971497,-0.7063565254211426,0.0009496808052062988,0.0003025531768798828,0.047268450260162354,0.881410797076972,0.3829412176015904,-0.013333011059151328,0.27621256032536845
1715269987624490200,2.813490234375,-0.02218860201537609,0.17610864341259003,-0.10194547474384308,-0.23337280750274658,-0.6674041152000427,-0.707183837890625,-0.0037030279636383057,0.002349674701690674,0.038833677768707275,0.8816671831155589,0.3824265963681966,-0.012569255371278426,0.27614319706019524
1715269987634480000,2.823480224609375,0.047105785459280014,0.16009825468063354,-0.08837507665157318,-0.2318432331085205,-0.6675358414649963,-0.7075625061988831,-0.004118725657463074,0.015726029872894287,0.020993351936340332,0.8817824316410292,0.3822040651576306,-0.01178087064320868,0.2761180754562196
1715269987644470300,2.83347021484375,0.15557809174060822,0.13109377026557922,-0.06269634515047073,-0.23061266541481018,-0.6683680415153503,-0.7071789503097534,-0.0038844645023345947,0.012835144996643066,-0.002965092658996582,0.8816715176148422,0.38247827592758527,-0.010995630121135858,0.2761249552566159
1715269987654460200,2.843460205078125,0.21556633710861206,0.0900440663099289,-0.037789661437273026,-0.2298607975244522,-0.6698334217071533,-0.7060362696647644,0.003221958875656128,0.011584460735321045,-0.021624743938446045,0.8813316971974219,0.38324342084333984,-0.010311801729578907,0.2761750671727676
1715269987664451000,2.853451171875,0.2523622512817383,0.05725788697600365,0.0332363098859787,-0.22964197397232056,-0.6715794801712036,-0.7044470310211182,0.014493018388748169,0.017343521118164062,-0.03491753339767456,0.8808277530930595,0.38429237536679606,-0.009790907576989749,0.2763439836395616
1715269987674441200,2.863441162109375,1.4454309940338135,-0.04940703883767128,0.26998814940452576,-0.23366212844848633,-0.6788581013679504,-0.696099042892456,0.018848851323127747,0.0023290514945983887,-0.04326552152633667,0.8785175256678943,0.38966676795399835,-0.010501807698212684,0.27614631088484143
1715269987684431000,2.87343115234375,0.8343067169189453,-0.16917072236537933,-0.04480169713497162,-0.23540057241916656,-0.6861717700958252,-0.6882986426353455,0.03975231945514679,0.031951069831848145,-0.016092777252197266,0.8762817482770378,0.39465436990227587,-0.009929989168226239,0.2761880424900789
1715269987694421000,2.8834208984375,0.7915397882461548,-0.09126660227775574,0.0721302479505539,-0.23610271513462067,-0.6918051838874817,-0.6823936700820923,-0.03512232005596161,0.14904993772506714,-0.041513681411743164,0.8746155107010288,0.3983949669410686,-0.009198071020218274,0.2761244207750939
1715269987704411100,2.8934111328125,0.4274787902832031,-0.06996157765388489,0.1587134748697281,-0.23756369948387146,-0.6956714987754822,-0.6779415607452393,-0.03175397217273712,0.024727165699005127,0.06508767604827881,0.8732302513478972,0.4011833916026171,-0.009005172873336159,0.2764777051977864
1715269987714401300,2.9034013671875,0.18856927752494812,0.07518228888511658,0.10213888436555862,-0.23847752809524536,-0.6973949670791626,-0.6758468151092529,0.04314969480037689,-0.09174394607543945,0.039006054401397705,0.8724327310739639,0.4024904064690784,-0.008835501788883204,0.2771007151351856
1715269987724391200,2.91339111328125,0.04867726191878319,0.15730087459087372,0.04288095235824585,-0.2381071299314499,-0.6980197429656982,-0.6753321886062622,0.050011977553367615,-0.004128813743591309,0.04779934883117676,0.872120322172333,0.40282168773704585,-0.008281552366480593,0.2776192446310772
1715269987734381300,2.92338134765625,-0.01743358001112938,0.19354116916656494,0.07806210964918137,-0.23729866743087769,-0.6979356408119202,-0.6757035255432129,-0.006521552801132202,-0.02584993839263916,0.01775991916656494,0.8720294924731277,0.4026045655843713,-0.0076022690599427956,0.27823810576179075
1715269987744371200,2.93337109375,0.009856577031314373,0.2226196825504303,0.060213204473257065,-0.23639966547489166,-0.6977401971817017,-0.6762203574180603,-0.006169363856315613,-0.004820346832275391,-0.0005984306335449219,0.8719452326410552,0.40229701559493664,-0.006849863450366256,0.27896583867549385
1715269987754361000,2.943361083984375,-0.11257772892713547,0.286263644695282,0.008696747943758965,-0.2348620444536209,-0.6974081993103027,-0.6770980954170227,0.0003801882266998291,0.031697630882263184,-0.02476036548614502,0.8719902724409904,0.40176716277772895,-0.005840090215404187,0.2796109987464669
1715269987764351200,2.953351318359375,-0.3412149250507355,0.37362009286880493,0.022984473034739494,-0.2326919585466385,-0.6958567500114441,-0.6794394254684448,-0.001438915729522705,-0.005895018577575684,-0.0358467698097229,0.8724378571993967,0.4003221934886765,-0.004737158370817535,0.28030697430290363
1715269987774342100,2.963342041015625,-0.5091482996940613,0.3765197694301605,0.004268842749297619,-0.23015768826007843,-0.6928405165672302,-0.6833736300468445,0.005655065178871155,-0.04789745807647705,-0.021078824996948242,0.8732911924598683,0.3978688675191456,-0.0036816131330438817,0.2811572730129328
1715269987784332000,2.97333203125,-0.4074594974517822,0.15432611107826233,-0.11131107807159424,-0.22800415754318237,-0.6897483468055725,-0.6872128248214722,0.005485177040100098,-0.05008941888809204,-0.020169317722320557,0.8743807527508987,0.3954532604659678,-0.0032097627765542702,0.2811849899070507
1715269987794322200,2.983322265625,-0.17738208174705505,0.12844711542129517,0.016317982226610184,-0.22663997113704681,-0.6878119707107544,-0.6896007061004639,0.03176991641521454,-0.07393741607666016,-0.017155766487121582,0.8750540018035533,0.3939431748377892,-0.002900188875726184,0.2812135620769787
1715269987804312300,2.993312255859375,0.10602481663227081,0.10646484792232513,0.04481939971446991,-0.2260890156030655,-0.6875297427177429,-0.6900628805160522,0.05918833613395691,0.01052767038345337,-0.01745659112930298,0.875050593335876,0.39365259854573176,-0.0024892773266768087,0.2816347798150437
1715269987814302200,3.00330224609375,0.1692378669977188,0.06407292187213898,-0.020747628062963486,-0.22554919123649597,-0.6885836720466614,-0.6891880035400391,-0.01671464741230011,0.13807708024978638,-0.010702013969421387,0.8747367943916085,0.39421104870155965,-0.0019127137516940507,0.2818324692411225
1715269987824292000,3.0132919921875,0.036643341183662415,0.0894688218832016,0.019052183255553246,-0.22498343884944916,-0.6893649697303772,-0.6885916590690613,-0.03694896399974823,0.06398338079452515,0.01651841402053833,0.874529448409681,0.39459112094863547,-0.0014154146318823835,0.28194729716687916
1715269987834282200,3.0232822265625,-0.09872700273990631,0.12375675141811371,0.05914261192083359,-0.22450590133666992,-0.6890301704406738,-0.6890824437141418,0.010989606380462646,-0.015926003456115723,0.04268968105316162,0.8745398641050577,0.3942811783525247,-0.001060855790744969,0.2823497462497249
1715269987844272000,3.033272216796875,-0.13735008239746094,0.11883416771888733,0.051434025168418884,-0.2240350991487503,-0.6880497336387634,-0.6902143955230713,0.03719119727611542,-0.05329859256744385,0.046049416065216064,0.8747060102562808,0.39356342291697516,-0.0008040845362306814,0.28283678246875243
1715269987854262000,3.043261962890625,-0.07052125036716461,0.10825502872467041,0.04594551399350166,-0.2235594242811203,-0.6872057318687439,-0.6912087798118591,0.024798378348350525,-0.025822341442108154,0.036744117736816406,0.8748535998951957,0.39293167324190437,-0.0005465445712040662,0.28325933868724135
1715269987864252200,3.053252197265625,-0.01671692356467247,0.11607593297958374,0.04013476520776749,-0.22306399047374725,-0.6868609189987183,-0.69171142578125,0.006801128387451172,0.010728657245635986,0.0237579345703125,0.8748668828052354,0.39261210634519517,-0.00018635661180291252,0.2836615492228473
1715269987874243300,3.063243408203125,-0.004619513638317585,0.12469898164272308,0.03383319452404976,-0.22232864797115326,-0.6868373155593872,-0.691971480846405,0.009636357426643372,0.010994970798492432,0.01200944185256958,0.8748230643345689,0.39244635729612737,0.0003434349095600142,0.28402548275015305
1715269987884233200,3.073233154296875,0.003975784871727228,0.12313251197338104,0.02636256068944931,-0.2214505821466446,-0.6867637634277344,-0.6923259496688843,0.015853598713874817,-0.025104641914367676,0.012943685054779053,0.8748158933917565,0.3922195494457915,0.0009213134081850205,0.28435928526922505
1715269987894223000,3.08322314453125,0.016636451706290245,0.13695405423641205,0.024807807058095932,-0.22093644738197327,-0.6864311099052429,-0.6928199529647827,0.018070802092552185,-0.06540006399154663,0.01044696569442749,0.8748100330125377,0.391903416297841,0.0013149431902728104,0.28481137924022926
1715269987904213200,3.093213134765625,-0.013670213520526886,0.13370579481124878,-0.0076413461938500404,-0.22022385895252228,-0.6863585710525513,-0.6931186318397522,0.013055235147476196,-0.06423664093017578,0.006534218788146973,0.8747859912113634,0.3917108852659254,0.0018099574295810938,0.28514717580737037
1715269987914203100,3.103203125,-0.05992106720805168,0.12259188294410706,-0.0010353750549256802,-0.2193007469177246,-0.6862086057662964,-0.6935595870018005,0.009232982993125916,-0.06234180927276611,0.008699476718902588,0.8748414408131859,0.39142651976722975,0.002341468501391608,0.28536336507272586
1715269987924193000,3.113193115234375,-0.01698760688304901,0.0873582661151886,-0.00968865118920803,-0.21842198073863983,-0.6861220002174377,-0.6939226388931274,0.016990646719932556,-0.04260736703872681,0.01666128635406494,0.8749024723571692,0.3911913975238229,0.002825511029842548,0.2854946099317508
1715269987934183200,3.12318310546875,0.06932438164949417,0.0637887567281723,-0.013324931263923645,-0.2177761346101761,-0.6864604353904724,-0.6937909126281738,0.02646137773990631,-0.0009328722953796387,0.012653887271881104,0.8748441590862311,0.3912722695838805,0.0032495811034156385,0.28555803724583373
1715269987944173000,3.133173095703125,0.10406739264726639,0.06320951879024506,-0.012298482470214367,-0.2172628790140152,-0.6871479749679565,-0.6932709217071533,0.022804811596870422,-0.005173921585083008,0.002566695213317871,0.8746730179603456,0.39160052492695213,0.0036816217963286657,0.28562692127326234
1715269987954163200,3.1431630859375,0.11058414727449417,0.05522935837507248,-0.007110111881047487,-0.21678324043750763,-0.6879051923751831,-0.6926698684692383,0.014741569757461548,-0.030692338943481445,0.004986822605133057,0.8744766630669285,0.39197978421290364,0.004114156680194769,0.2857018705832751
1715269987964153000,3.153153076171875,0.13704168796539307,0.040698885917663574,0.009355214424431324,-0.21640057861804962,-0.6888473629951477,-0.6918527483940125,0.015015050768852234,-0.02187669277191162,0.011127710342407227,0.8742202972174141,0.3924959348030295,0.004534266882623095,0.2857717222354923
1715269987974143000,3.16314306640625,0.17538481950759888,0.03728631138801575,0.022075271233916283,-0.2160353809595108,-0.6902737021446228,-0.690544068813324,0.01735064387321472,-0.015567481517791748,0.00641632080078125,0.8738266941377273,0.3933224365188519,0.005042147094016042,0.28583075893766374
1715269987984134100,3.173134033203125,0.1983412653207779,0.026072537526488304,0.025566142052412033,-0.2156703919172287,-0.6921372413635254,-0.6887905597686768,0.014666318893432617,-0.01175081729888916,-0.002081573009490967,0.8733126677148892,0.39442742983783063,0.005632499879236447,0.28586786492169824
1715269987994124300,3.183124267578125,0.19734683632850647,0.014309089630842209,0.035864319652318954,-0.21551121771335602,-0.6939773559570312,-0.68698650598526,0.01415620744228363,-0.006919980049133301,-0.00033032894134521484,0.8727796252224884,0.39556198714085594,0.006121491317596428,0.285918070896537
1715269988004114200,3.1931142578125,0.20463857054710388,0.014324269257485867,0.04472039267420769,-0.21537327766418457,-0.695704460144043,-0.6852807998657227,0.019480884075164795,-0.005665898323059082,-0.0020970702171325684,0.872265363871672,0.3966310180665305,0.006590041957338588,0.2859960421470475
1715269988014104000,3.20310400390625,0.24398571252822876,0.002367208944633603,0.04077385365962982,-0.21522006392478943,-0.6971613764762878,-0.6838467717170715,0.024591967463493347,-0.0018285512924194336,-0.012136995792388916,0.8718109466848035,0.3975262325179334,0.007035211638346084,0.286128048229971
1715269988024094200,3.21309423828125,0.24055956304073334,-0.0034989360719919205,0.04034881666302681,-0.21506644785404205,-0.6986753344535828,-0.682348370552063,0.021310284733772278,-0.0026186704635620117,-0.018716633319854736,0.8713482767879343,0.39845938729478636,0.007479282246294683,0.2862281183705009
1715269988034084000,3.223083984375,0.21336282789707184,0.009879719465970993,0.05056390166282654,-0.2150178849697113,-0.700313925743103,-0.6806818246841431,0.016272127628326416,-0.005054175853729248,-0.023862123489379883,0.870834069966466,0.39949548186680883,0.007902185428289688,0.2863372387055796
1715269988044074000,3.233073974609375,0.19087228178977966,0.02182879112660885,0.05554434657096863,-0.21500548720359802,-0.7016832232475281,-0.6792742013931274,0.013635203242301941,-0.011466920375823975,-0.026017487049102783,0.8703638317533133,0.4003675036570083,0.008292807335704977,0.28653799377648026
1715269988054064000,3.243064208984375,0.19393011927604675,0.01677730679512024,0.07131265848875046,-0.2149914652109146,-0.7028889060020447,-0.6780309677124023,0.018183574080467224,-0.021522223949432373,-0.029259562492370605,0.8699213946362644,0.4011349009012321,0.008677257713129605,0.28679694889690655
1715269988064054300,3.25305419921875,0.2002054750919342,0.01798798143863678,0.07529308646917343,-0.21507783234119415,-0.7039610147476196,-0.6768903732299805,0.026982665061950684,-0.024997234344482422,-0.03648853302001953,0.8694909825183972,0.4018378794432803,0.00900743678811139,0.2871078253738581
1715269988074044200,3.263044189453125,0.2343602478504181,0.02231668308377266,0.07462675869464874,-0.21521508693695068,-0.705170750617981,-0.6755862236022949,0.028371185064315796,-0.02744954824447632,-0.03968465328216553,0.8690081356750009,0.40264064043019676,0.009349617116731629,0.2874335742234314
1715269988084035000,3.27303515625,0.2922593355178833,0.026388123631477356,0.06924591213464737,-0.21523912250995636,-0.7066963315010071,-0.673982560634613,0.029982104897499084,-0.025862932205200195,-0.04481315612792969,0.8684438291873906,0.4036241538306141,0.009811743833539777,0.2877442002184203
1715269988094025200,3.283025146484375,0.33482491970062256,0.021510010585188866,0.05751442164182663,-0.21524998545646667,-0.7085444927215576,-0.6720359325408936,0.04081146419048309,-0.024442076683044434,-0.056357502937316895,0.8677891743963433,0.404814897649682,0.010340154005657604,0.28802810781709426
1715269988104015000,3.29301513671875,0.3788537085056305,0.02124156430363655,0.04647129029035568,-0.21529912948608398,-0.7106673121452332,-0.6697748899459839,0.05476135015487671,-0.037898480892181396,-0.06609541177749634,0.867053050135773,0.4061942843846583,0.010897863893800569,0.2882822238848999
1715269988114005000,3.3030048828125,0.4004705846309662,0.025217397138476372,-0.007616711780428886,-0.21518471837043762,-0.7131137251853943,-0.6672064661979675,0.06430578231811523,-0.06195652484893799,-0.0672447681427002,0.8662709271357563,0.4077539985382514,0.011551203539588412,0.28840632689618817
1715269988123995100,3.3129951171875,0.38284197449684143,0.045215871185064316,-0.12191179394721985,-0.21440967917442322,-0.7157914638519287,-0.6645834445953369,0.06974107027053833,-0.09301602840423584,-0.06548845767974854,0.8655835688068118,0.40933316910572415,0.01243483972778367,0.28819612744064704
1715269988133985000,3.322985107421875,0.32822588086128235,0.05329057574272156,-0.241522878408432,-0.21276640892028809,-0.7185595631599426,-0.6621198058128357,0.08532500267028809,-0.11728650331497192,-0.049900949001312256,0.8651131377466534,0.41080028843195904,0.013535471026894341,0.28747039412734554
1715269988143975200,3.33297509765625,0.25171664357185364,0.06496800482273102,-0.32629209756851196,-0.21030281484127045,-0.7210820317268372,-0.6601617932319641,0.10704655945301056,-0.1549862027168274,-0.03248029947280884,0.8649212764572369,0.4119464473363016,0.014806564603407901,0.2863428585962644
1715269988153965300,3.34296533203125,0.2364916354417801,0.05633723363280296,-0.3924279808998108,-0.2072548270225525,-0.72341388463974,-0.6585726737976074,0.12317885458469391,-0.19286131858825684,-0.014736592769622803,0.8649413773987747,0.4128582975064449,0.01617709381212923,0.28489108350603964
1715269988163955200,3.352955078125,0.3152187764644623,0.039253588765859604,-0.44547227025032043,-0.2038865089416504,-0.7260438203811646,-0.6567273736000061,0.13412326574325562,-0.187347412109375,0.006535172462463379,0.8649826891749847,0.4139146615580144,0.01763394411693167,0.2831412327161785
1715269988173945000,3.362945068359375,0.4592129588127136,0.04987400770187378,-0.46940502524375916,-0.20024776458740234,-0.7295042872428894,-0.6540065407752991,0.13542838394641876,-0.14506864547729492,0.014739632606506348,0.864829081608232,0.4154797445039563,0.0193212593956896,0.2812013536636362
1715269988183936000,3.37293603515625,0.5877617597579956,0.043962590396404266,-0.46370169520378113,-0.1964932531118393,-0.7338778972625732,-0.6502413153648376,0.1237545758485794,-0.10187661647796631,0.012149333953857422,0.8643810303161876,0.41764537898915977,0.021252435227548966,0.2792245170650135
1715269988193926100,3.382926025390625,0.6682201027870178,0.037996575236320496,-0.43264898657798767,-0.19291123747825623,-0.7388266921043396,-0.645693838596344,0.10833171010017395,-0.07425326108932495,0.018557608127593994,0.8636884497053319,0.4202532162769763,0.02324469657885253,0.2772894833055497
1715269988203916000,3.392916015625,0.710856556892395,0.06003636494278908,-0.4133128821849823,-0.1894826740026474,-0.7440929412841797,-0.6406419277191162,0.09399312734603882,-0.05902302265167236,0.03419673442840576,0.8628002626089117,0.42312996096706457,0.025299411622054346,0.2754937893008158
1715269988213906200,3.40290625,0.7623628377914429,0.07389812171459198,-0.409706711769104,-0.18593576550483704,-0.749550998210907,-0.6352962851524353,0.07965826988220215,-0.05663198232650757,0.048504412174224854,0.8618017848967054,0.42614079201573896,0.027493124430575583,0.2737628218136908
1715269988223896300,3.412896240234375,0.8515997529029846,0.07779298722743988,-0.5009970664978027,-0.1820259690284729,-0.7555464506149292,-0.629298210144043,0.06657792627811432,-0.05306267738342285,0.04920494556427002,0.8606560833138446,0.4294826087867989,0.02992609834181964,0.2718830961513411
1715269988233886200,3.42288623046875,0.8539292216300964,0.09110613167285919,-0.5595061779022217,-0.1774113029241562,-0.7618644833564758,-0.6229669451713562,0.0548221617937088,-0.035346388816833496,0.04269057512283325,0.8595299745460365,0.4329588100134507,0.03260647450757115,0.2696143227979308
1715269988243876000,3.4328759765625,0.8748217821121216,0.10119418799877167,-0.518855631351471,-0.17266537249088287,-0.768166720867157,-0.6165279746055603,0.050503477454185486,0.011193335056304932,0.04031038284301758,0.858366372243346,0.43644706801451627,0.03535511566761565,0.267341310552997
1715269988253866200,3.4428662109375,0.8237047791481018,0.1119546890258789,-0.48752084374427795,-0.1681319922208786,-0.774268627166748,-0.6101146936416626,0.04696191847324371,0.038794875144958496,0.03604859113693237,0.8571417984857613,0.43988003067709314,0.038055319941704774,0.26526505207139267
1715269988263856000,3.452856201171875,0.7253891825675964,0.14314989745616913,-0.46974167227745056,-0.16363273561000824,-0.7797607779502869,-0.6043156981468201,0.040067046880722046,0.03914487361907959,0.02370363473892212,0.8560452271937841,0.4429305404819012,0.040677779032083944,0.2633333650599368
1715269988273846300,3.46284619140625,0.6943004727363586,0.1673646867275238,-0.43585294485092163,-0.15911495685577393,-0.7847467660903931,-0.5990450978279114,0.031185224652290344,0.061892032623291016,0.015655875205993652,0.855040469652029,0.44564892834368597,0.043295182793867015,0.2615884481875753
1715269988283837200,3.472837158203125,0.6595831513404846,0.17422552406787872,-0.39392566680908203,-0.15481071174144745,-0.7894405126571655,-0.5939844250679016,0.01967884600162506,0.07941842079162598,-0.004297375679016113,0.8540320007808555,0.44822555705100003,0.04584376412926766,0.26004183735635944
1715269988293827000,3.4828271484375,0.6088107824325562,0.18083149194717407,-0.3532131314277649,-0.15077638626098633,-0.7937699556350708,-0.5892333388328552,0.00693175196647644,0.09449005126953125,-0.025253236293792725,0.8530515455636558,0.45061391196637135,0.048274478593744924,0.2586888876479684
1715269988303817000,3.49281689453125,0.5268839597702026,0.180982768535614,-0.3060902953147888,-0.1470717489719391,-0.7976182103157043,-0.5849574208259583,-0.0096818208694458,0.1112625002861023,-0.03412210941314697,0.8521433755797662,0.452733222361528,0.05053638145879691,0.25754708112433855
1715269988313807400,3.502807373046875,0.3826090693473816,0.182687446475029,-0.2532148063182831,-0.14375638961791992,-0.8006859421730042,-0.5815806984901428,-0.025051623582839966,0.10251998901367188,-0.03882622718811035,0.851422426902813,0.4543665087338468,0.05254252522443828,0.25665202046505775
1715269988323797200,3.51279736328125,0.21438543498516083,0.1879836767911911,-0.19231131672859192,-0.1408865600824356,-0.8027474880218506,-0.5794373750686646,-0.03433014452457428,0.08817827701568604,-0.0329892635345459,0.8509788028634954,0.4553474274818955,0.05422197108185031,0.2560353208553502
1715269988333787100,3.522787109375,0.06803487241268158,0.18949155509471893,-0.14603303372859955,-0.13841509819030762,-0.8037835955619812,-0.5785959362983704,-0.041257187724113464,0.07914358377456665,-0.021425306797027588,0.8508290207102359,0.4556432265322232,0.05559917310977064,0.25571089588397933
1715269988343777300,3.53277734375,-0.0003261254169046879,0.19621311128139496,-0.10061349719762802,-0.13627855479717255,-0.8041248917579651,-0.5786289572715759,-0.05109940469264984,0.08160585165023804,-0.009398937225341797,0.8508683846368197,0.4554830778802039,0.056751188869129804,0.25561229024300497
1715269988353767200,3.54276708984375,-0.02703789621591568,0.1777198612689972,-0.042206112295389175,-0.13455690443515778,-0.8041478395462036,-0.5789997577667236,-0.06383788585662842,0.07981300354003906,0.0005697011947631836,0.8509427082940817,0.4551574799295384,0.05772160240696905,0.2557273818122051
1715269988363757000,3.552757080078125,-0.021010898053646088,0.156998872756958,0.09459681063890457,-0.1339336335659027,-0.8039997220039368,-0.5793500542640686,-0.07811777293682098,0.09364187717437744,0.005467057228088379,0.8508831904981936,0.454891199319138,0.058300684240371575,0.2562676331695769
1715269988373748000,3.562748046875,-0.11399543285369873,0.14442715048789978,0.141964852809906,-0.13397033512592316,-0.8033772706985474,-0.5802043080329895,-0.09204286336898804,0.08639717102050781,0.010197103023529053,0.8508808498257701,0.4543861318579733,0.058575470568331095,0.25710713566079724
1715269988383738000,3.572738037109375,-0.09363274276256561,0.15389548242092133,0.20465514063835144,-0.1344786286354065,-0.8025888204574585,-0.5811771154403687,-0.0998048484325409,0.031592607498168945,0.013245105743408203,0.8508233710427389,0.45383218198801345,0.05871797244308541,0.25824069309132225
1715269988393728300,3.582728271484375,-0.06368789076805115,0.1356528252363205,0.22564351558685303,-0.13537324965000153,-0.801801860332489,-0.5820550322532654,-0.09524811804294586,0.06226921081542969,0.012566566467285156,0.8506967788271087,0.45334709274317164,0.05872729479641864,0.25950478983576875
1715269988403718100,3.59271826171875,-0.002703955862671137,0.11523143947124481,0.22619718313217163,-0.13643574714660645,-0.8013153076171875,-0.5824769139289856,-0.09632183611392975,0.11834698915481567,0.002932906150817871,0.850443213126782,0.45311692423061334,0.058707743535984014,0.26073949015575426
1715269988413708300,3.602708251953125,0.030341345816850662,0.11034320294857025,0.2588438093662262,-0.13770589232444763,-0.801080584526062,-0.5825008153915405,-0.09474653005599976,0.08408522605895996,0.002880573272705078,0.8500576182721291,0.4531091699639207,0.05866569175671371,0.2620166880275122
1715269988423698200,3.6126982421875,0.009800810366868973,0.10006953775882721,0.2674486041069031,-0.13920047879219055,-0.8008564114570618,-0.5824537873268127,-0.09172606468200684,0.05996578931808472,-0.00018775463104248047,0.8496249998527625,0.4531499487278799,0.058551070030875896,0.26337129557148486
1715269988433688000,3.62268798828125,-0.057099658995866776,0.1004631519317627,0.25746363401412964,-0.14072240889072418,-0.800370991230011,-0.5827550888061523,-0.08580958843231201,0.053559958934783936,0.0003120303153991699,0.8492954405269919,0.45300940916996213,0.0583517358335853,0.2647165091242717
1715269988443678200,3.63267822265625,-0.12136370688676834,0.09968976676464081,0.24294839799404144,-0.14210760593414307,-0.7994669675827026,-0.583659291267395,-0.07388059794902802,0.03007286787033081,0.0011856555938720703,0.849154648728512,0.4525432051220371,0.05809471371233349,0.26601924222090084
1715269988453668000,3.642668212890625,-0.12209714204072952,0.09525054693222046,0.24263280630111694,-0.14345355331897736,-0.7983859181404114,-0.5848087668418884,-0.06688888370990753,0.02444469928741455,0.003555774688720703,0.8490909379732606,0.45194542670868126,0.05780090983658667,0.26729998085082823
1715269988463658000,3.652657958984375,-0.03301791846752167,0.08873271942138672,0.2250267118215561,-0.14479508996009827,-0.7975784540176392,-0.5855791568756104,-0.07120835781097412,0.040299952030181885,-0.0011211037635803223,0.84892725546561,0.4515504052379427,0.05755553532356947,0.2685370363989029
1715269988473649200,3.662649169921875,0.07106773555278778,0.07274070382118225,0.17780886590480804,-0.1459142565727234,-0.7974100112915039,-0.5855308175086975,-0.0771539956331253,0.05871671438217163,-0.00782233476638794,0.848589439084204,0.45158757405207867,0.05747400005434705,0.2695578054994918
1715269988483639300,3.672639404296875,0.13690966367721558,0.0696631520986557,0.14314217865467072,-0.1472378522157669,-0.7975631356239319,-0.5849907994270325,-0.07847020030021667,0.057572782039642334,-0.006409287452697754,0.8481305275908482,0.45190501082902496,0.05732771300218373,0.2705000030910415
1715269988493629200,3.682629150390625,0.12449133396148682,0.060912810266017914,0.09363081306219101,-0.14825403690338135,-0.7979841232299805,-0.5841593146324158,-0.06602515280246735,0.027277886867523193,0.0006633400917053223,0.8476518297884689,0.45236845670942216,0.057298508315761804,0.271230673326969
1715269988503619000,3.692619140625,0.08740586042404175,0.05563895404338837,0.0806131511926651,-0.14912307262420654,-0.7983089089393616,-0.5834940075874329,-0.05183519423007965,-0.003448963165283203,0.009244859218597412,0.8472682500350485,0.45274289091983144,0.057243947606237716,0.2718154494407061
1715269988513609200,3.702609130859375,0.05268755927681923,0.049737121909856796,0.07895399630069733,-0.15003113448619843,-0.7983816266059875,-0.5831617712974548,-0.04488466680049896,-0.023273766040802002,0.01762533187866211,0.8469834116015691,0.4529441426633997,0.05710280956624483,0.2723971588334535
1715269988523599000,3.71259912109375,0.03014187514781952,0.048522986471652985,0.0654352605342865,-0.15080873668193817,-0.7983750104904175,-0.582970142364502,-0.04839479923248291,-0.01734471321105957,0.021080613136291504,0.8467593875580665,0.4530658249470436,0.05697612969112628,0.27291716889276124
1715269988533589200,3.72258935546875,0.009829413145780563,0.03927888721227646,0.04198266565799713,-0.15144231915473938,-0.798292875289917,-0.5829182863235474,-0.054688677191734314,-0.009858489036560059,0.02472144365310669,0.8466059599889755,0.45310960105281783,0.056855398050504324,0.27334506967061317
1715269988543579100,3.7325791015625,-0.01143715251237154,0.03128328174352646,0.02798495627939701,-0.1519567221403122,-0.7980875372886658,-0.5830655694007874,-0.0517023503780365,-0.010399460792541504,0.030331313610076904,0.8465411688379563,0.4530459559764921,0.05671477797006144,0.2736803118898562
1715269988553569000,3.742569091796875,-0.03077596426010132,0.029621200636029243,0.01477994117885828,-0.1524132341146469,-0.7977124452590942,-0.5834596157073975,-0.04366225004196167,-0.016328752040863037,0.033197224140167236,0.8465638728728222,0.4528509021434835,0.05653548700619043,0.2739699052448914
1715269988563559200,3.75255908203125,-0.04917420074343681,0.015399121679365635,0.002868685871362686,-0.15299829840660095,-0.7971930503845215,-0.5840162038803101,-0.03570716083049774,-0.022173523902893066,0.03244161605834961,0.8466450306066842,0.45258098292295673,0.056234686190080985,0.27422709861159933
1715269988573550300,3.76255029296875,-0.10435941815376282,0.013570062816143036,0.03538508340716362,-0.15361203253269196,-0.7965744137763977,-0.5846986770629883,-0.031019359827041626,-0.03417515754699707,0.028042912483215332,0.8467704229802215,0.4522476322820674,0.05588136825165768,0.2744618111399409
1715269988583540200,3.772540283203125,-0.11664324998855591,0.026809168979525566,0.07024246454238892,-0.15432053804397583,-0.7958171367645264,-0.5855428576469421,-0.02451251447200775,-0.046422362327575684,0.027223825454711914,0.8468924106785075,0.45182439746496894,0.055527299155452764,0.2748543797629419
1715269988593530000,3.782530029296875,0.9026941657066345,-0.7205685973167419,0.15414589643478394,-0.15684974193572998,-0.7969538569450378,-0.5833204388618469,-0.026484623551368713,-0.018658995628356934,0.020469605922698975,0.8462874302448055,0.45318556692890843,0.05442993263845777,0.27469594880638926
1715269988603520300,3.792520263671875,0.432876318693161,-0.3811602294445038,-0.23246559500694275,-0.1582355946302414,-0.8009191751480103,-0.5774860382080078,-0.0332774817943573,0.026627063751220703,0.05397236347198486,0.8446861719804748,0.45637902564409716,0.05454516073599883,0.2743143959153205
1715269988613510100,3.80251025390625,0.3360978662967682,-0.00987720675766468,-0.1089753583073616,-0.15817002952098846,-0.8035302758216858,-0.5738653540611267,-0.10708878934383392,0.10771417617797852,0.04862743616104126,0.843998578432297,0.45834864084841465,0.05462459741548456,0.27312855038631945
1715269988623500000,3.8125,-0.06921230256557465,0.01461615227162838,-0.10451076924800873,-0.1578405648469925,-0.804530143737793,-0.5725535750389099,-0.027507975697517395,0.02189159393310547,0.07241636514663696,0.8437508965941319,0.45903998728821294,0.054822474482052214,0.27269257082151177
1715269988633490200,3.822490234375,-0.2724725008010864,0.09442442655563354,-0.15440668165683746,-0.15683773159980774,-0.8036412596702576,-0.5740755796432495,0.04978202283382416,-0.05860251188278198,0.10157209634780884,0.8443014601412017,0.4581961831320403,0.054940538618853285,0.2723838477775291
1715269988643480000,3.83247998046875,-0.2963246703147888,0.1672499030828476,-0.18727648258209229,-0.15495182573795319,-0.8023337721824646,-0.5764119029045105,0.0237719863653183,-0.04179787635803223,0.05805563926696777,0.8450954421520303,0.4568637613746099,0.05540344025362523,0.2720660195253085
1715269988653469400,3.842469482421875,-0.2711609899997711,0.21430529654026031,-0.21601545810699463,-0.1524880826473236,-0.8011295795440674,-0.5787391066551208,-0.0040671080350875854,-0.04341399669647217,0.017581939697265625,0.8458810354938814,0.4554905556302188,0.05620332971165784,0.2717627706352933
1715269988663459300,3.852459228515625,-0.3859209716320038,0.2923891544342041,-0.2784996032714844,-0.14927519857883453,-0.7997927069664001,-0.5814195871353149,-0.015229851007461548,-0.029064834117889404,-0.012910127639770508,0.8467922916304522,0.4538769713028358,0.05732265730925107,0.27139068622926615
1715269988673450500,3.862450439453125,-0.5462275147438049,0.2683602571487427,-0.33458471298217773,-0.14510111510753632,-0.797468364238739,-0.5856534242630005,0.0007224082946777344,-0.05847352743148804,-0.01964735984802246,0.8482019141198883,0.45137243096672164,0.05861913221230755,0.27088809445228285
1715269988683440400,3.8724404296875,-0.3626145124435425,0.17969432473182678,-0.21364465355873108,-0.14168396592140198,-0.7951042056083679,-0.589690625667572,0.00879514217376709,-0.07487571239471436,-0.005600392818450928,0.8495689614435644,0.44901636180059656,0.059489407036458636,0.27032942641644586
1715269988693430500,3.882430419921875,-0.06210608035326004,0.10745501518249512,-0.23307400941848755,-0.139168843626976,-0.794181764125824,-0.5915298461914062,0.016350820660591125,-0.009559810161590576,0.013984739780426025,0.850282525123379,0.44788639355406396,0.06027326159649643,0.2697865476439356
1715269988703420400,3.89242041015625,-0.03416840359568596,0.08200079202651978,-0.2753317058086395,-0.13654157519340515,-0.7944095134735107,-0.5918362140655518,-0.009866535663604736,0.07459127902984619,-0.0036379098892211914,0.8506576556021204,0.44758654646537,0.061222269325605816,0.268886491839304
1715269988713410300,3.902410400390625,-0.2489539533853531,0.09435439109802246,-0.22329354286193848,-0.13403970003128052,-0.7939519286155701,-0.5930209755897522,-0.032586291432380676,0.03711587190628052,0.017841041088104248,0.8512711648411456,0.4468220332051195,0.06196439469697779,0.2680448594225949
1715269988723400400,3.912400390625,-0.40829432010650635,0.13053317368030548,-0.2083372324705124,-0.13170075416564941,-0.7922154068946838,-0.5958605408668518,0.0059682875871658325,-0.003912031650543213,0.04962646961212158,0.8522746910862361,0.44516136379386206,0.06245872901358812,0.26750382742645384
1715269988733390300,3.922390380859375,-0.3644653558731079,0.14768072962760925,-0.23032374680042267,-0.12912069261074066,-0.7901254296302795,-0.5991909503936768,0.020966380834579468,-0.03862529993057251,0.04808938503265381,0.8534066529322785,0.4432080319129111,0.06301718625461014,0.2670069732694682
1715269988743380200,3.932380126953125,-0.23515136539936066,0.1436052918434143,-0.23617473244667053,-0.12636932730674744,-0.7886318564414978,-0.601739764213562,0.00013333559036254883,-0.017337501049041748,0.025110244750976562,0.8543382104929362,0.4416601733715827,0.06376835850764215,0.2664138934371466
1715269988753370400,3.942370361328125,-0.09435989707708359,0.14730948209762573,-0.2213590294122696,-0.12368994206190109,-0.7879287004470825,-0.6032158136367798,-0.009153097867965698,0.02961254119873047,0.008138418197631836,0.8549591008493502,0.4406918868130643,0.06467416987358951,0.2658064393536721
1715269988763361500,3.952361572265625,0.040366280823946,0.16175606846809387,-0.22035348415374756,-0.12099568545818329,-0.7880480289459229,-0.6036062836647034,-0.010260432958602905,0.0664750337600708,0.00553816556930542,0.8552589357150896,0.4403038101341425,0.0657981851628894,0.26520853896163465
1715269988773351400,3.962351318359375,0.10664969682693481,0.13014674186706543,-0.22113005816936493,-0.11832115799188614,-0.7888033986091614,-0.6031495332717896,-0.014521889388561249,0.0749056339263916,0.0008547306060791016,0.8553273105462782,0.4403754000403674,0.06704280081173833,0.26455636665321314
1715269988783341300,3.97234130859375,0.12255260348320007,0.07117903232574463,-0.12688378989696503,-0.11661972850561142,-0.7898015975952148,-0.6021738648414612,-0.006030455231666565,0.04962813854217529,-0.002653956413269043,0.8552372487424499,0.44080516533719105,0.06785192437319118,0.2639246704705804
1715269988793331500,3.98233154296875,0.09644989669322968,0.14062228798866272,-0.16667620837688446,-0.11489580571651459,-0.7905745506286621,-0.6014906764030457,0.021817177534103394,0.009187102317810059,0.0024611949920654297,0.8551752298664191,0.4410591315688066,0.0687131148341687,0.2634786322235288
1715269988803321300,3.9923212890625,0.0507543683052063,0.1416449397802353,-0.1086483895778656,-0.1128135621547699,-0.7912267446517944,-0.6010270714759827,0.01859050989151001,-0.005221128463745117,0.006254792213439941,0.8551436784964095,0.4411531725864317,0.06978781703345596,0.26314078165244403
1715269988813311200,4.002311279296875,-0.010996346361935139,0.11431984603404999,0.08702816814184189,-0.11215636134147644,-0.7913307547569275,-0.6010131239891052,-0.013759195804595947,-0.0017296671867370605,0.011138916015625,0.8550570817933628,0.441080552315525,0.0702950453179732,0.26340870471433564
1715269988823301400,4.01230126953125,-0.08893546462059021,0.16435079276561737,-0.015610522590577602,-0.11166653037071228,-0.7909857034683228,-0.6015583276748657,0.0017879605293273926,0.005585193634033203,0.017299354076385498,0.8550566823189937,0.4407015200598547,0.07073192602277392,0.2639270912224542
1715269988833291300,4.022291259765625,-0.12834039330482483,0.16463255882263184,-0.045073073357343674,-0.11028488725423813,-0.7903755903244019,-0.6026142239570618,-0.010808885097503662,-0.006011307239532471,0.019728541374206543,0.8552951340431183,0.4399913619951279,0.07141773394714523,0.264154467923713
1715269988843281200,4.03228125,-0.13618899881839752,0.12543880939483643,0.05906105041503906,-0.10942162573337555,-0.7895785570144653,-0.6038151979446411,0.0003975480794906616,0.020947396755218506,0.02312678098678589,0.8555263691663745,0.4392349552500685,0.07186831312549069,0.26454189878995027
1715269988853272300,4.042272216796875,-0.15040308237075806,0.1386805772781372,0.07122158259153366,-0.10918469727039337,-0.7886592745780945,-0.6050581336021423,0.031944699585437775,0.03608042001724243,0.022141993045806885,0.8556934498784777,0.43849098557244864,0.07208727924948696,0.2651752634785854
1715269988863262500,4.052262451171875,-0.2121536284685135,0.16454707086086273,0.056344762444496155,-0.10872837901115417,-0.7874987721443176,-0.6066497564315796,0.011346757411956787,0.016487300395965576,0.021124303340911865,0.8559509872313775,0.4375346980412188,0.07237761073858087,0.26584377508075213
1715269988873252400,4.06225244140625,-0.2599445879459381,0.15200410783290863,0.1157420426607132,-0.10834255814552307,-0.7859631776809692,-0.6087066531181335,-0.015665650367736816,0.010068893432617188,0.027026474475860596,0.8563113861919036,0.43632257763773324,0.0725897470609708,0.2666162907103059
1715269988883242500,4.072242431640625,-0.24444633722305298,0.1407775580883026,0.18740198016166687,-0.10865973681211472,-0.7842517495155334,-0.6108537912368774,0.0023975148797035217,0.014903545379638672,0.03495669364929199,0.8566033408209989,0.4350982543949803,0.07254393388437283,0.2676895218985873
1715269988893232400,4.082232421875,-0.1917780637741089,0.14108195900917053,0.17389069497585297,-0.10937148332595825,-0.7828025221824646,-0.6125832200050354,0.014080315828323364,0.01704007387161255,0.034092068672180176,0.8567358970469784,0.43412486533100947,0.07241539215804565,0.2688779614755105
1715269988903222300,4.09222216796875,-0.07883057743310928,0.12652245163917542,0.08478891849517822,-0.10962209850549698,-0.781913697719574,-0.6136725544929504,-0.002911485731601715,0.0286482572555542,0.03531879186630249,0.856767230486137,0.4334787908884262,0.07252485293330432,0.2697893628802833
1715269988913212400,4.10221240234375,-0.03765464201569557,0.0784691721200943,0.028360528871417046,-0.1094500869512558,-0.7817075848579407,-0.6139658093452454,-0.0029461756348609924,0.031127631664276123,0.03812974691390991,0.8567168541378183,0.4332667107823378,0.07278086139871445,0.2702207022599358
1715269988923202300,4.112202392578125,-0.1300724446773529,0.07165174186229706,0.05631779506802559,-0.10935606807470322,-0.7812484502792358,-0.6145667433738708,0.021175503730773926,-0.01645064353942871,0.042346954345703125,0.8567796902302948,0.4329005886096936,0.07289519156474505,0.27057748649204466
1715269988933192200,4.122192138671875,-0.18239744007587433,0.08072353899478912,0.04370506480336189,-0.10905639082193375,-0.780277669429779,-0.615851879119873,0.02678096294403076,-0.036967933177948,0.06070667505264282,0.8570315524866008,0.4321393545390785,0.07300447038745356,0.270966594440164
1715269988943183400,4.132183349609375,-0.18083785474300385,0.05372786894440651,0.022008292376995087,-0.10879866778850555,-0.7792141437530518,-0.6172425150871277,-0.0006373971700668335,-0.026251673698425293,0.07245808839797974,0.8573360033640343,0.43132909657351426,0.07303382991841637,0.27128674119025453
1715269988953173500,4.142173583984375,-0.14492805302143097,0.01889398694038391,0.009657882153987885,-0.1088472306728363,-0.7783221006393433,-0.6183584332466125,-0.01056806743144989,-0.02418351173400879,0.06844699382781982,0.8575942810893481,0.43070575004753603,0.07289269586337321,0.27149852562457166
1715269988963163400,4.152163330078125,-0.1133965477347374,-0.010463634505867958,-0.0061990441754460335,-0.1088620275259018,-0.7776699066162109,-0.6191756725311279,0.010641179978847504,-0.017053663730621338,0.062275826930999756,0.8578156207853589,0.43025537499585037,0.07274930862202963,0.27155152999808163
1715269988973153300,4.1621533203125,-0.11118212342262268,-0.031384363770484924,-0.03572976961731911,-0.10874011367559433,-0.7771265506744385,-0.6198791265487671,0.02246686816215515,-0.012699127197265625,0.055899083614349365,0.8580610342411102,0.4298693913132131,0.07261359865628575,0.27142420401986206
1715269988983143400,4.172143310546875,-0.11339195817708969,-0.05213518068194389,-0.05265982076525688,-0.10872423648834229,-0.776569664478302,-0.6205793619155884,0.010167688131332397,-0.014507114887237549,0.05678248405456543,0.8583402627040605,0.42950400264006294,0.07236452865904155,0.2711860786857939
1715269988993133300,4.18213330078125,-0.13623656332492828,-0.06455829739570618,-0.06791919469833374,-0.10868988186120987,-0.7759372591972351,-0.6213759779930115,0.0008559972047805786,-0.03622716665267944,0.05677032470703125,0.8586799960567724,0.42909213774466326,0.07205524441407393,0.27084471289988377
1715269989003123200,4.192123291015625,-0.11856663972139359,-0.07690630853176117,-0.08861129730939865,-0.10836028307676315,-0.7755016088485718,-0.6219769716262817,0.0013656243681907654,-0.0429341197013855,0.05163407325744629,0.8590146446057283,0.4287736876433719,0.07186547478933963,0.27033756898199135
1715269989013113300,4.20211328125,-0.08720631897449493,-0.1025560051202774,-0.11218027025461197,-0.1078924909234047,-0.775460958480835,-0.622109055519104,0.001096189022064209,-0.03734433650970459,0.04386204481124878,0.8592713487917073,0.428715754512418,0.07175155163435162,0.2696432271187188
1715269989023103200,4.212103271484375,-0.07424887269735336,-0.11862312257289886,-0.12773972749710083,-0.10770437121391296,-0.7756354808807373,-0.621924102306366,0.00009937584400177002,-0.030684828758239746,0.03305697441101074,0.8594638443846089,0.4288656521649354,0.07149972754656012,0.26885719601763525
1715269989033094400,4.222094482421875,-0.04648488387465477,-0.13069017231464386,-0.13407698273658752,-0.10762740671634674,-0.7759197950363159,-0.6215825080871582,-0.003136172890663147,-0.019505620002746582,0.026428818702697754,0.859630123870339,0.42911714013512275,0.07118449772046526,0.26800616859504506
1715269989043084300,4.232084228515625,-0.03035065531730652,-0.1486033946275711,-0.13808056712150574,-0.10733810812234879,-0.776386022567749,-0.621050238609314,-0.0106276273727417,-0.019649803638458252,0.020449042320251465,0.8597749893162927,0.42946301234879425,0.07096771087756779,0.2670435294248775
1715269989053074400,4.242074462890625,-0.037005096673965454,-0.15402744710445404,-0.13943186402320862,-0.10689415782690048,-0.7769437432289124,-0.6204290986061096,-0.014474272727966309,-0.028384804725646973,0.015326619148254395,0.8599190606113767,0.4298503107099179,0.07081074870118978,0.2659962985208385
1715269989063064300,4.252064208984375,-0.029194576665759087,-0.15568074584007263,-0.15380693972110748,-0.10658430308103561,-0.7776521444320679,-0.6195942759513855,-0.015501290559768677,-0.01704096794128418,0.018337011337280273,0.8600071887293894,0.43036891395965793,0.07060771438359387,0.2649245552380916
1715269989073054200,4.26205419921875,-0.0029645725153386593,-0.17320062220096588,-0.15452758967876434,-0.10642611235380173,-0.7786078453063965,-0.6184201240539551,-0.017643123865127563,-0.004229187965393066,0.015194475650787354,0.8600100612628534,0.431090864156614,0.07036055852578216,0.26380481238375
1715269989083044400,4.27204443359375,0.01695273071527481,-0.19193248450756073,-0.1516287475824356,-0.1063699722290039,-0.7795639634132385,-0.6172240972518921,-0.015502005815505981,-0.007560789585113525,0.004568576812744141,0.8600154679059381,0.43183571115642033,0.0700419133214179,0.26265107821954736
1715269989093034200,4.2820341796875,0.017688561230897903,-0.19441349804401398,-0.15342745184898376,-0.10639606416225433,-0.7803946137428284,-0.6161690950393677,-0.009082481265068054,-0.008225500583648682,0.0011789202690124512,0.8600580768953714,0.4325089408859418,0.06965257569157729,0.26150509766745667
1715269989103024000,4.292024169921875,0.012333210557699203,-0.19054365158081055,-0.15433891117572784,-0.10638059675693512,-0.7810966372489929,-0.6152815818786621,-0.007587313652038574,-0.012391090393066406,-0.0024551749229431152,0.8601457936643822,0.433085241008012,0.06925593007426142,0.2603655909904559
1715269989113014500,4.3020146484375,-0.004038039594888687,-0.19361427426338196,-0.15522921085357666,-0.10642747581005096,-0.7815492749214172,-0.6146984100341797,-0.009157910943031311,-0.016195714473724365,-0.011247575283050537,0.8603103663738498,0.4334970721709794,0.06878279316881783,0.2592596237894605
1715269989123005400,4.31200537109375,-0.003811404574662447,-0.19889426231384277,-0.14878101646900177,-0.1066458448767662,-0.7818924188613892,-0.6142239570617676,-0.007062673568725586,-0.01237344741821289,-0.01686418056488037,0.860493940489572,0.4338607738626035,0.068211821942435,0.258190622308705
1715269989132995300,4.321995361328125,-0.002823370974510908,-0.20205463469028473,-0.1594666838645935,-0.10690844804048538,-0.7822469472885132,-0.6137266755104065,-0.0058387815952301025,-0.0008800029754638672,-0.01965034008026123,0.8606720497922661,0.4342405091905932,0.067615434565269,0.2571131336547218
1715269989142985200,4.331985107421875,0.014114598743617535,-0.20472045242786407,-0.1587325930595398,-0.10719507932662964,-0.7826401591300964,-0.6131751537322998,-0.004300899803638458,0.013017237186431885,-0.017455220222473145,0.8608363638129943,0.4346518004841933,0.0670092134265737,0.25602449051753695
1715269989152975400,4.341975341796875,0.039240192621946335,-0.20865048468112946,-0.1613994836807251,-0.10754088312387466,-0.7830467820167542,-0.6125952005386353,-0.0019561946392059326,0.0180777907371521,-0.01393061876296997,0.860991691528477,0.4350827634321063,0.0663731947117693,0.2549335927291755
1715269989162965200,4.35196533203125,0.021000361070036888,-0.2174072265625,-0.16058708727359772,-0.10785695910453796,-0.7834028005599976,-0.6120842099189758,-0.00014476478099822998,0.015229463577270508,-0.01396852731704712,0.861170943558389,0.4354736915255467,0.06573085251923816,0.25382470545125013
1715269989172955400,4.361955322265625,0.003875703550875187,-0.21888048946857452,-0.16374506056308746,-0.10806450992822647,-0.783662736415863,-0.6117148399353027,0.0037706345319747925,0.008409202098846436,-0.00736469030380249,0.8614020642670739,0.43578026460518104,0.06510101486336459,0.2526741407468185
1715269989182945300,4.3719453125,-0.03054751828312874,-0.20626376569271088,-0.16101166605949402,-0.10819917172193527,-0.7837385535240173,-0.6115937232971191,0.004866637289524078,-0.002867400646209717,-0.0006498098373413086,0.8617001638819284,0.43594327326517485,0.06447170926170107,0.2515347199702733
1715269989192935400,4.381935302734375,-0.0161624513566494,-0.19191783666610718,-0.1630772054195404,-0.10823052376508713,-0.783713161945343,-0.6116207838058472,0.001876741647720337,0.006262481212615967,-0.0017519593238830566,0.8620259700815281,0.436012325755968,0.06389726271137777,0.2504432933531901
1715269989202925600,4.391925537109375,-0.003677554428577423,-0.1988857388496399,-0.16993218660354614,-0.10818786919116974,-0.7837294936180115,-0.6116074323654175,-0.003949016332626343,0.018974125385284424,-0.011851370334625244,0.8623430668833244,0.4360978871789892,0.06336336667982465,0.2493359845453645
1715269989212916500,4.40191650390625,0.011914720758795738,-0.19633975625038147,-0.1678176373243332,-0.10813942551612854,-0.7837526202201843,-0.611586332321167,-0.0072475820779800415,0.0189361572265625,-0.013474643230438232,0.86266231480188,0.43618804151061463,0.06282368396007182,0.24820794535259433
1715269989222906400,4.41190625,0.0011162953451275826,-0.18960115313529968,-0.1698598861694336,-0.10806065052747726,-0.783759593963623,-0.6115912199020386,-0.00679229199886322,0.009864211082458496,-0.010295867919921875,0.8629805553527172,0.43625914711361624,0.062308366275901306,0.24710366821065824
1715269989232896300,4.421896240234375,-0.041681502014398575,-0.19333544373512268,-0.17236831784248352,-0.10792621970176697,-0.7835987210273743,-0.611821174621582,-0.01039046049118042,-0.006089508533477783,-0.005854487419128418,0.8633647356514561,0.43620242324839725,0.06178073721996746,0.24599225887548545
1715269989242886400,4.431886474609375,-0.10832864791154861,-0.19839385151863098,-0.17910949885845184,-0.1077447310090065,-0.7831526398658752,-0.6124240756034851,-0.01484440267086029,-0.015889286994934082,0.003766298294067383,0.8638618590404978,0.43593834294268163,0.06120225464135176,0.24485723812098106
1715269989252876300,4.441876220703125,-0.20007163286209106,-0.20290285348892212,-0.18728035688400269,-0.10750194638967514,-0.7823175191879272,-0.6135329604148865,-0.018215231597423553,-0.02789372205734253,0.014900267124176025,0.8645159084793339,0.4353934799139208,0.06054790762259252,0.24367751585361375
1715269989262866200,4.4518662109375,-0.2711539566516876,-0.19824019074440002,-0.1985953152179718,-0.10722314566373825,-0.7810463309288025,-0.615199089050293,-0.017639555037021637,-0.04361504316329956,0.023753345012664795,0.8653337807573931,0.4345379031906634,0.059810130287712926,0.2424812631185135
1715269989272856600,4.461856689453125,-0.29236575961112976,-0.21720029413700104,-0.19804830849170685,-0.10693943500518799,-0.7795040011405945,-0.6172014474868774,-0.0163516104221344,-0.052176475524902344,0.028441190719604492,0.8662559481556158,0.4334951086503438,0.05900220697223382,0.24125008263604347
1715269989282846500,4.471846435546875,-0.3099302053451538,-0.23520725965499878,-0.2017514407634735,-0.10677362978458405,-0.7778539061546326,-0.6193084120750427,-0.016853109002113342,-0.04456442594528198,0.031463623046875,0.8672172173540214,0.43240141813290056,0.058093184673861625,0.2399766067129457
1715269989292837400,4.48183740234375,-0.2746792733669281,-0.2382533848285675,-0.2053229957818985,-0.10665467381477356,-0.7762158513069153,-0.6213805675506592,-0.013340473175048828,-0.014235258102416992,0.03724372386932373,0.8681768708756258,0.43132804469787756,0.057147452781773356,0.23866158001102994
1715269989302827300,4.4918271484375,-0.1889818012714386,-0.24184252321720123,-0.19975100457668304,-0.10655810683965683,-0.7749881148338318,-0.6229277849197388,-0.017389073967933655,0.01586318016052246,0.037615954875946045,0.8689876869500588,0.4305454139835478,0.05627396192616724,0.23732788307088903
1715269989312817400,4.5018173828125,-0.13950985670089722,-0.2639731466770172,-0.1900368630886078,-0.10661431401968002,-0.7741625308990479,-0.6239438652992249,-0.02052195370197296,0.0137253999710083,0.02729475498199463,0.869645240095541,0.4300678363600778,0.05540512219695093,0.23598592498617593
1715269989322807300,4.511807373046875,-0.09123685956001282,-0.2716526389122009,-0.2011801153421402,-0.10676268488168716,-0.7736443877220154,-0.6245607733726501,-0.016925089061260223,0.019402384757995605,0.026355326175689697,0.870198294614307,0.4298208343071347,0.05453131992663335,0.23459636083238095
1715269989332797200,4.521797119140625,-0.032542917877435684,-0.2798767387866974,-0.21235500276088715,-0.1068664938211441,-0.7734731435775757,-0.6247552037239075,-0.01219785213470459,0.028477907180786133,0.022719740867614746,0.8706505264602493,0.4298108451693566,0.05371255210773318,0.23312140935843023
1715269989342787300,4.531787353515625,0.0041229515336453915,-0.28768113255500793,-0.22550909221172333,-0.10693500936031342,-0.7736253142356873,-0.6245549321174622,-0.007933162152767181,0.021504223346710205,0.011472165584564209,0.8710100381999996,0.4300236020344521,0.05293610972659396,0.23155796040933102
1715269989352777200,4.541777099609375,0.034970611333847046,-0.2844341993331909,-0.24358929693698883,-0.10689294338226318,-0.7739895582199097,-0.6241106986999512,-0.00040690600872039795,0.017595946788787842,0.0005756020545959473,0.8713169064490365,0.430368857424454,0.05222347031828037,0.22991827538727055
1715269989362767400,4.551767333984375,0.03682907298207283,-0.2899962365627289,-0.2574690282344818,-0.10672947019338608,-0.7744947075843811,-0.6235116124153137,0.004388757050037384,0.013599872589111328,-0.005760669708251953,0.8715964492653177,0.43079614312494524,0.05156417781676309,0.2282004839188279
1715269989372757500,4.561757568359375,0.014785023406147957,-0.289057195186615,-0.260256826877594,-0.10653125494718552,-0.7749344706535339,-0.6229990720748901,0.005212858319282532,-0.00024265050888061523,-0.009279310703277588,0.8719088005063662,0.43117390677047285,0.050887401138766414,0.22643949504439165
1715269989382748400,4.57174853515625,-0.033352307975292206,-0.2900758385658264,-0.26562264561653137,-0.10629025846719742,-0.7751587629318237,-0.6227611899375916,0.0056432634592056274,-0.01201176643371582,-0.006892681121826172,0.8722978559861375,0.43139404602858133,0.050185591225064996,0.22467141823342895
1715269989392738300,4.58173828125,-0.08926190435886383,-0.28837916254997253,-0.27163177728652954,-0.10599642992019653,-0.775071382522583,-0.6229199767112732,0.005852952599525452,-0.019453883171081543,-0.006230354309082031,0.872800172577026,0.43138775895481085,0.04944305381449263,0.22289023945952613
1715269989402728200,4.591728271484375,-0.13866247236728668,-0.28193190693855286,-0.2758532166481018,-0.1056327149271965,-0.7746313810348511,-0.623528778553009,0.009700685739517212,-0.016674280166625977,-0.006277680397033691,0.8734297983439387,0.4311234336514437,0.04866422182643146,0.2210994135829602
1715269989412718300,4.60171826171875,-0.15542708337306976,-0.278600811958313,-0.2803899347782135,-0.10520404577255249,-0.7740066647529602,-0.6243763566017151,0.0149025097489357,-0.01011204719543457,-0.004895985126495361,0.8741235498649182,0.43071885382334635,0.0478861415284666,0.21930878319791808
1715269989422708200,4.611708251953125,-0.1779385656118393,-0.2880989909172058,-0.289993554353714,-0.10475346446037292,-0.7732618451118469,-0.6253742575645447,0.015504799783229828,-0.009010612964630127,-0.0038523077964782715,0.8748630239518151,0.4302276320206644,0.04708565346184143,0.217490047276874
1715269989432698400,4.621698486328125,-0.17228707671165466,-0.291898250579834,-0.2934412658214569,-0.10429734736680984,-0.7724628448486328,-0.6264370083808899,0.01951950043439865,-0.008665144443511963,0.0034207701683044434,0.8756247997778854,0.4296987804985314,0.04626509276155788,0.21563835430941125
1715269989442688500,4.6316884765625,-0.17880968749523163,-0.2917579114437103,-0.2946089506149292,-0.10384061187505722,-0.7716700434684753,-0.6274890899658203,0.026951536536216736,-0.010190367698669434,0.006578564643859863,0.8763834996988444,0.4291743247513496,0.04544057579043598,0.2137678601691705
1715269989452678400,4.641678466796875,-0.18091918528079987,-0.29707595705986023,-0.3086424767971039,-0.10334140807390213,-0.7708432078361511,-0.6285868883132935,0.026818543672561646,-0.008224904537200928,0.011201083660125732,0.8771599367715737,0.42862089144268956,0.04461717114434366,0.21185878167840955
1715269989462668500,4.65166845703125,-0.16379158198833466,-0.30412110686302185,-0.3142361044883728,-0.10281015932559967,-0.7700793147087097,-0.6296094655990601,0.028484582901000977,-0.002458035945892334,0.016648709774017334,0.8779246985180066,0.42810881388889144,0.04379640811607946,0.20988829048803892
1715269989472659500,4.661659423828125,-0.16033267974853516,-0.3101172149181366,-0.3146667182445526,-0.10230390727519989,-0.769377589225769,-0.6305490732192993,0.03376138210296631,-0.003022432327270508,0.016611814498901367,0.8786692247540239,0.42764457066395567,0.04296026270203998,0.20788247952857253
1715269989482649300,4.6716494140625,-0.13223378360271454,-0.30511417984962463,-0.3165959417819977,-0.1017928496003151,-0.7687700986862183,-0.6313722729682922,0.03717184066772461,0.0028855204582214355,0.019525468349456787,0.8793781888720944,0.427244595478254,0.04214148205429136,0.2058650389426147
1715269989492639200,4.68163916015625,-0.10651056468486786,-0.3082466125488281,-0.3251854181289673,-0.10124955326318741,-0.7683311700820923,-0.6319935321807861,0.03516373783349991,0.010777950286865234,0.015813231468200684,0.8800291714442519,0.42695707707820696,0.0413629558765056,0.20382700936661602
1715269989502629400,4.69162939453125,-0.08869875967502594,-0.31473299860954285,-0.3372281789779663,-0.10067156702280045,-0.7680425643920898,-0.6324365139007568,0.03025224804878235,0.015875637531280518,0.008367419242858887,0.8806378275244156,0.4267705246953911,0.040603593812667926,0.2017310000609211
1715269989512619300,4.701619384765625,-0.08428643643856049,-0.3202816843986511,-0.34634602069854736,-0.10005883127450943,-0.7678402066230774,-0.6327793002128601,0.02927330881357193,0.015887022018432617,0.004697144031524658,0.8812275971510753,0.42664096366390836,0.03984750919756885,0.1995686002808127
1715269989522609400,4.711609375,-0.10052372515201569,-0.32569003105163574,-0.35541677474975586,-0.09938374161720276,-0.7676033973693848,-0.6331729888916016,0.02974259853363037,0.002146124839782715,0.006967604160308838,0.8818404076078955,0.4264803733726768,0.03908975828026118,0.1973427271839429
1715269989532599600,4.721599609375,-0.10158419609069824,-0.319281667470932,-0.3581142723560333,-0.09865834563970566,-0.7672927379608154,-0.6336627006530762,0.031229734420776367,-0.011760115623474121,0.010493874549865723,0.8824782909311624,0.4262613324630538,0.03833953561857675,0.1950985806995965
1715269989542589400,4.73158935546875,-0.1063656359910965,-0.3247685730457306,-0.3623473644256592,-0.09791459143161774,-0.7669898271560669,-0.6341446042060852,0.03143203258514404,-0.017785072326660156,0.01170814037322998,0.8831118954239756,0.42604507416833254,0.03759384726785217,0.19283609741397684
1715269989552580400,4.741580322265625,-0.1090831309556961,-0.33616530895233154,-0.3639918863773346,-0.0972214862704277,-0.766655445098877,-0.6346555352210999,0.031059354543685913,-0.010871529579162598,0.008892655372619629,0.8837519019933976,0.4258137809233038,0.03680846587986342,0.19055347549028584
1715269989562570200,4.7515703125,-0.10415568947792053,-0.3414314389228821,-0.3588045537471771,-0.0965929925441742,-0.7663176655769348,-0.6351591348648071,0.03226190805435181,0.005682170391082764,0.01183772087097168,0.8843864248383727,0.42558856346764695,0.03598334903802897,0.18825618928374244
1715269989572560400,4.761560302734375,-0.10438258945941925,-0.33327898383140564,-0.35091787576675415,-0.09602921456098557,-0.7659924030303955,-0.6356368064880371,0.029531389474868774,0.010178685188293457,0.010484278202056885,0.8850012170573125,0.4253782406934652,0.03514182352173381,0.1859878019589341
1715269989582550300,4.77155029296875,-0.1022777333855629,-0.3213597238063812,-0.34348025918006897,-0.09543755650520325,-0.7656667828559875,-0.6361180543899536,0.023400768637657166,0.013728737831115723,0.006067454814910889,0.8855994910636944,0.42516054266083314,0.03434352984254874,0.18377384889478132
1715269989592540200,4.7815400390625,-0.08827456831932068,-0.3143436312675476,-0.3405523896217346,-0.09481434524059296,-0.765397846698761,-0.6365348100662231,0.017711669206619263,0.020021140575408936,0.00479048490524292,0.8861658259291125,0.42497555622817756,0.03359125390922976,0.18159772507704264
1715269989602530300,4.7915302734375,-0.07167577743530273,-0.3017386198043823,-0.3334847688674927,-0.09420070052146912,-0.7651832699775696,-0.6368837952613831,0.012535631656646729,0.026062607765197754,-0.000811457633972168,0.8866970201505088,0.4248267298941886,0.03286868190513584,0.17947296433667237
1715269989612520400,4.8015205078125,-0.021746568381786346,-0.2905845046043396,-0.3262026309967041,-0.09354858845472336,-0.7651639580726624,-0.6370031237602234,0.011959820985794067,0.0396541953086853,-0.011144399642944336,0.8871509194713983,0.42480658810470806,0.03221500901939883,0.1773839430268741
1715269989622510300,4.81151025390625,0.02906893938779831,-0.28215429186820984,-0.3154449164867401,-0.09289056807756424,-0.765493631362915,-0.6367032527923584,0.011759579181671143,0.03394138813018799,-0.023101985454559326,0.8874706849745452,0.42502593175856473,0.03164393704056509,0.17535012211364914
1715269989632501200,4.821501220703125,0.04261377826333046,-0.27079057693481445,-0.30782774090766907,-0.09226033091545105,-0.7660121917724609,-0.6361708641052246,0.010610558092594147,0.021902024745941162,-0.031599342823028564,0.8877078639291286,0.42537793701141147,0.031115446956259257,0.17337898051605516
1715269989642491400,4.831491455078125,0.03925217688083649,-0.2615366280078888,-0.3031173348426819,-0.09159044176340103,-0.7665649652481079,-0.6356017589569092,0.007392436265945435,0.026116788387298584,-0.03489995002746582,0.887922451341149,0.4257473576101557,0.030632012864746483,0.17144927185521708
1715269989652481300,4.841481201171875,0.0184510238468647,-0.25529763102531433,-0.2940159738063812,-0.09094616025686264,-0.7670366168022156,-0.635124921798706,0.0050086453557014465,0.0248032808303833,-0.041464924812316895,0.8881479819507783,0.4260617541611684,0.030148458078611162,0.169574879187333
1715269989662470700,4.851470703125,-0.03287187218666077,-0.23358939588069916,-0.28357359766960144,-0.09028568118810654,-0.7672579288482666,-0.6349518299102783,0.004302382469177246,0.01428234577178955,-0.04827558994293213,0.8884407703536508,0.4261966214823313,0.029673453582640452,0.16777689324125994
1715269989672460500,4.86146044921875,-0.06603860855102539,-0.20929470658302307,-0.27267780900001526,-0.08954177051782608,-0.7671851515769958,-0.6351450681686401,0.00410781055688858,0.010623812675476074,-0.05243116617202759,0.8888138650574349,0.42611256722268764,0.029249965171008308,0.16607972809424604
1715269989682450400,4.871450439453125,-0.08576342463493347,-0.18598192930221558,-0.26065364480018616,-0.08874276280403137,-0.7669318914413452,-0.6355629563331604,-0.0003685951232910156,0.014185190200805664,-0.058101534843444824,0.8892280267318844,0.42589251694518626,0.028880491089403604,0.16448451469110326
1715269989692440600,4.881440673828125,-0.0712963342666626,-0.1700194627046585,-0.24577482044696808,-0.08792945742607117,-0.766636848449707,-0.6360317468643188,-0.0038216710090637207,0.02391517162322998,-0.0662386417388916,0.8896343802668979,0.42563861253267443,0.02856376180587422,0.16299280773672958
1715269989702430500,4.891430419921875,-0.05841536819934845,-0.15559180080890656,-0.2260749489068985,-0.087131068110466,-0.7664356827735901,-0.6363840103149414,-0.006359577178955078,0.03544801473617554,-0.07003676891326904,0.8899865736534508,0.4254491243336965,0.028302651532376127,0.1616045499970314
1715269989712421600,4.901421630859375,-0.059536829590797424,-0.1325940638780594,-0.20593585073947906,-0.08637652546167374,-0.7662368416786194,-0.6367262005805969,-0.009891204535961151,0.04319906234741211,-0.07497411966323853,0.8903109858535964,0.4252627903783155,0.028079308428342165,0.16034221691262662
1715269989722411500,4.91141162109375,-0.06679446995258331,-0.11007624864578247,-0.1921171247959137,-0.0856180265545845,-0.7660105228424072,-0.6371009349822998,-0.013533614575862885,0.052555203437805176,-0.07133400440216064,0.8906187615629023,0.42505301586159694,0.02791891957603554,0.15921337888944043
1715269989732401700,4.921401611328125,-0.07317140698432922,-0.0888519138097763,-0.17848919332027435,-0.08482369780540466,-0.765699028968811,-0.6375812888145447,-0.016799859702587128,0.05659252405166626,-0.06635230779647827,0.89093631922352,0.42477713665568084,0.027816096748037478,0.15818699832301097
1715269989742391600,4.9313916015625,-0.050475046038627625,-0.07522265613079071,-0.1606532633304596,-0.08402829617261887,-0.7654432058334351,-0.6379938125610352,-0.017595261335372925,0.06099051237106323,-0.05930227041244507,0.8912152737797527,0.42453717074000763,0.02777207251504135,0.1572654862420228
1715269989752381400,4.94138134765625,-0.04263709858059883,-0.06429837644100189,-0.14021269977092743,-0.08331290632486343,-0.765272319316864,-0.6382925510406494,-0.018661580979824066,0.04980283975601196,-0.055081963539123535,0.8914427754622485,0.42436286820587643,0.02774674389545556,0.15644885912440948
1715269989762371600,4.95137158203125,-0.03721335902810097,-0.05084674432873726,-0.1182715892791748,-0.08269847929477692,-0.7650973200798035,-0.6385821104049683,-0.018925070762634277,0.04161703586578369,-0.05035215616226196,0.8916438067012243,0.4241933687193778,0.027729599720608317,0.1557642603679693
1715269989772361500,4.961361572265625,-0.040752433240413666,-0.03943030536174774,-0.11195829510688782,-0.0820901170372963,-0.7649552822113037,-0.6388306617736816,-0.017702363431453705,0.047136008739471436,-0.04384738206863403,0.8918189829297223,0.42404541054115663,0.027751559560214356,0.1551589114898358
1715269989782351600,4.9713515625,-0.04409123584628105,-0.033734068274497986,-0.09155742079019547,-0.08152727037668228,-0.764761209487915,-0.6391351222991943,-0.015655964612960815,0.04169285297393799,-0.04198658466339111,0.8919958854695301,0.4238640234952378,0.02777975239584274,0.15463228346363417
1715269989792342800,4.9813427734375,-0.061313096433877945,-0.022702723741531372,-0.07094535231590271,-0.08131756633520126,-0.7635663747787476,-0.6405887603759766,-0.013515830039978027,0.03537106513977051,-0.03442949056625366,0.8924546733326466,0.4230178834209274,0.027595274620848487,0.15433464126238294
1715269989802332700,4.991332763671875,-0.09090103209018707,-0.011776573024690151,-0.06135058030486107,-0.08129347860813141,-0.7619626522064209,-0.6424984931945801,-0.012166611850261688,0.03330963850021362,-0.02568376064300537,0.893016745160579,0.4219053542270236,0.02732435224199989,0.15417638711090864
1715269989812322600,5.001322509765625,-0.08899154514074326,-0.002041920553892851,-0.05254749953746796,-0.08132640272378922,-0.7602973580360413,-0.6444641351699829,-0.014041028916835785,0.043042659759521484,-0.01828598976135254,0.8935816444228164,0.4207567353440195,0.027050199569240263,0.15409084682181678
1715269989822312700,5.011312744140625,-0.0893154889345169,-0.002797991968691349,-0.039981111884117126,-0.08141770213842392,-0.7587196826934814,-0.6463092565536499,-0.014743208885192871,0.038306355476379395,-0.014457225799560547,0.8941035975052327,0.4196762236753391,0.02678109359803793,0.15405667035745346
1715269989832302600,5.021302490234375,-0.11255796253681183,-0.0063929930329322815,-0.03438287973403931,-0.08160671591758728,-0.7572258114814758,-0.6480351686477661,-0.010480068624019623,0.02216404676437378,-0.011663198471069336,0.8945876813960814,0.41866584193183665,0.02648268224558059,0.15404753230961837
1715269989842292500,5.03129248046875,-0.12829212844371796,-0.0006725229322910309,-0.025181923061609268,-0.08182502537965775,-0.7557480931282043,-0.649730384349823,-0.0038988888263702393,0.016490161418914795,-0.0032999515533447266,0.8950575034108381,0.41767104733978044,0.02618580258362696,0.15406936402203586
1715269989852282600,5.04128271484375,-0.15116070210933685,-0.003991354256868362,-0.008249545469880104,-0.08208435028791428,-0.7541983723640442,-0.6514959931373596,-0.0024340972304344177,0.010072886943817139,0.0009223818778991699,0.8955394966022928,0.4166321419428906,0.025877882171166988,0.15413319041420742
1715269989862272500,5.0512724609375,-0.16562587022781372,0.0003304234705865383,-0.0030025853775441647,-0.08233008533716202,-0.7526099681854248,-0.6532993912696838,-0.0007235109806060791,0.012619614601135254,0.008035778999328613,0.8960275465732273,0.41556673195470517,0.025584836199146394,0.1542225528228396
1715269989872263700,5.061263671875,-0.14943304657936096,-0.004718929994851351,0.0018845812883228064,-0.08257666975259781,-0.7511767745018005,-0.6549158096313477,0.0006674602627754211,0.024064838886260986,0.017495274543762207,0.8964632203659086,0.4146099990307347,0.025311087530985377,0.15431078122687975
1715269989882260000,5.071260009765625,-0.13284799456596375,-0.01889333873987198,0.006655700970441103,-0.08288862556219101,-0.7499424815177917,-0.6562893986701965,0.0022459030151367188,0.024707436561584473,0.02384316921234131,0.9100246335609586,0.41204516862845064,-0.04554196912884226,0
1715269989892249900,5.081249755859375,-0.12447183579206467,-0.024539506062865257,0.012138349935412407,-0.08332071453332901,-0.7488082051277161,-0.6575286388397217,0.003715604543685913,0.01882767677307129,0.03287971019744873,0.9103649578282287,0.41126890607957856,-0.045755380730366724,0.000015222066810038903
1715269989902239700,5.09123974609375,-0.12261299788951874,-0.04025055840611458,0.010771550238132477,-0.08380310237407684,-0.747822642326355,-0.6585881114006042,0.003999620676040649,0.013264477252960205,0.04939627647399902,0.9106558033544059,0.41059670851650365,-0.046003240578954524,0.00002054337679341378
1715269989912230000,5.10122998046875,-0.13931074738502502,-0.05791211128234863,0.0098881796002388,-0.08429481834173203,-0.7468953728675842,-0.659576952457428,0.007619380950927734,0.009438037872314453,0.06390440464019775,0.9109273537634491,0.40996219592521405,-0.04628725063911354,-0.000041260479481664
1715269989922219800,5.1112197265625,-0.13958552479743958,-0.08516983687877655,0.001907617668621242,-0.08482927083969116,-0.7459719181060791,-0.6605527400970459,0.013921678066253662,0.01191723346710205,0.07792651653289795,0.9111950629935273,0.40932727649329004,-0.046634732991781835,-0.00019227686283290746
1715269989932209700,5.121209716796875,-0.1406121850013733,-0.11298015713691711,0.007886947132647038,-0.08551084250211716,-0.7450759410858154,-0.661475419998169,0.019196130335330963,-0.0027726292610168457,0.08057337999343872,0.911448018495671,0.4087111029721221,-0.0470907500097468,-0.0004045626405373981
1715269989942199800,5.13119970703125,-0.1628178358078003,-0.1272650808095932,-0.0015477007254958153,-0.08631916344165802,-0.7441116571426392,-0.6624552011489868,0.022262752056121826,-0.019682347774505615,0.07801312208175659,0.9117166455956491,0.40804779189345636,-0.04763827063709089,-0.0006690939008879848
1715269989952191000,5.14119091796875,-0.15971259772777557,-0.1460326462984085,-0.011118569411337376,-0.08715136349201202,-0.7430490255355835,-0.6635381579399109,0.02030259370803833,-0.015618085861206055,0.07518982887268066,0.9120132914193047,0.4073137658507059,-0.0482328516529813,-0.0010147485849746896
1715269989962180900,5.151180908203125,-0.14546504616737366,-0.1663523018360138,-0.02129943296313286,-0.08803658187389374,-0.7421075701713562,-0.6644741296768188,0.014733351767063141,-0.006717503070831299,0.0675809383392334,0.9122690977231005,0.4066595597606131,-0.04889715484320106,-0.0014485652864378862
1715269989972170800,5.161170654296875,-0.15437491238117218,-0.18499469757080078,-0.038012370467185974,-0.08897368609905243,-0.7412256598472595,-0.6653331518173218,0.012221969664096832,-0.013886094093322754,0.05682802200317383,0.9125034956002003,0.40604136804083774,-0.04963698051651824,-0.001987670931488994
1715269989982161000,5.171160888671875,-0.1625438928604126,-0.18032829463481903,-0.05451810732483864,-0.08983762562274933,-0.740329921245575,-0.666213870048523,0.013513147830963135,-0.021831393241882324,0.049529969692230225,0.912743289869525,0.4054082136943711,-0.05037101852543449,-0.0026072400050880518
1715269989992150800,5.18115087890625,-0.17505063116550446,-0.17176756262779236,-0.0730113610625267,-0.09050171822309494,-0.7394293546676636,-0.6671234369277954,0.01028624176979065,-0.030803799629211426,0.041467368602752686,0.9129900378370199,0.4047643721026295,-0.051030260780608516,-0.0033087429614951924
1715269990002140700,5.191140625,-0.1692037135362625,-0.17215585708618164,-0.08708517253398895,-0.09101776778697968,-0.738562285900116,-0.6680132150650024,0.011626273393630981,-0.03330361843109131,0.029677093029022217,0.913230624953022,0.40413716495252805,-0.05163864198769416,-0.004080563166034501
1715269990012130800,5.201130859375,-0.18818140029907227,-0.1667264699935913,-0.10725808888673782,-0.09134765714406967,-0.737715482711792,-0.6689031720161438,0.011712022125720978,-0.030839264392852783,0.01208871603012085,0.9134698717253723,0.4035164545517548,-0.05218129830335752,-0.004937139532978085
1715269990022120700,5.21112060546875,-0.18987175822257996,-0.16468356549739838,-0.12157230824232101,-0.09146640449762344,-0.7368611693382263,-0.6698279976844788,0.009007900953292847,-0.028351902961730957,0.0011268854141235352,0.913717439788577,0.40288297398892764,-0.05264325227062869,-0.005877276459578862
1715269990032111900,5.22111181640625,-0.19367289543151855,-0.16654643416404724,-0.13179193437099457,-0.09149856120347977,-0.7360739707946777,-0.6706885695457458,0.01120680570602417,-0.027353882789611816,-0.001003265380859375,0.9139458825636481,0.40229092461548405,-0.05308226921017342,-0.006873237553795486
1715269990042101800,5.231101806640625,-0.20249637961387634,-0.1645810306072235,-0.14531011879444122,-0.09148252010345459,-0.7352051734924316,-0.6716429591178894,0.015768416225910187,-0.02750539779663086,-0.001208484172821045,0.914198369821861,0.4016398535496215,-0.053515908226400594,-0.007924755482937418
1715269990052092000,5.241091796875,-0.18622340261936188,-0.16333439946174622,-0.14801296591758728,-0.0914408415555954,-0.7343088388442993,-0.6726284623146057,0.0164286270737648,-0.013066649436950684,-0.0021150708198547363,0.9144579227028142,0.40096893287219726,-0.0539414635310847,-0.008995155757689166
