time,seconds_elapsed,rotationRateX,rotationRateY,rotationRateZ,gravityX,gravityY,gravityZ,accelerationX,accelerationY,accelerationZ,quaternionW,quaternionX,quaternionY,quaternionZ
1715269858128922600,0.071922607421875,0.00586662907153368,-0.01565946266055107,0.005039694719016552,0.0045590512454509735,-0.10238666832447052,-0.9947342276573181,0.011584747582674026,0.008636683225631714,0.0021347403526306152,0.9986826947591184,0.05126086164991643,0.002282532372917371,0
1715269858138912800,0.081912841796875,-0.00818607397377491,-0.013653036206960678,0.0033600388560444117,0.004349040798842907,-0.1022910475730896,-0.9947450160980225,0.007522296160459518,0.0040854960680007935,0.002710103988647461,0.9986853977412745,0.05121281378180867,0.002178235456490745,0.000016626225891047675
1715269858148903700,0.091903564453125,-0.006582902744412422,-0.013776874169707298,-0.0007347707287408412,0.004170585423707962,-0.10200599581003189,-0.9947750568389893,0.004343818873167038,0.0008402317762374878,0.002434968948364258,0.998692918360088,0.051069701674111886,0.00208921569018471,0.000023344612245568275
1715269858158893600,0.1018935546875,0.00463912496343255,-0.010292393155395985,0.0005275675794109702,0.004152295645326376,-0.10193661600351334,-0.9947822093963623,0.0029888153076171875,0.001610085368156433,0.0005500316619873047,0.9986947228536864,0.05103488548339444,0.002079795746197634,0.000018284019367487137
1715269858168883500,0.111883544921875,0.006410393863916397,-0.006733344867825508,0.0006499398732557893,0.004196442198008299,-0.10203222185373306,-0.9947722554206848,0.002090178430080414,0.0022397488355636597,0.00008231401443481445,0.9986922273478224,0.05108288935176504,0.002101572605676203,0.000011805978622714264
1715269858178873900,0.121873779296875,0.0044234092347323895,-0.005697375163435936,-0.00404175091534853,0.004208330065011978,-0.10213188827037811,-0.9947619438171387,0.0018494087271392345,-0.0006207823753356934,0.0021014809608459473,0.9986895797412663,0.0511329444149308,0.0021070195582367987,0.0000018267101107860562
1715269858188864300,0.1318642578125,0.019432399421930313,-0.0023463196121156216,-0.0009239884093403816,0.004283206537365913,-0.10228423029184341,-0.9947459697723389,-0.00115515710785985,-0.001383960247039795,0.0037639737129211426,0.998685698189256,0.05120944689595468,0.0021437712722910153,-0.000012685420351321586
1715269858198854100,0.141854248046875,0.02140020951628685,-0.002544991672039032,-0.010977953672409058,0.004457191564142704,-0.10247314721345901,-0.99472576379776,-0.0000016242265701293945,0.0007122904062271118,0.00397258996963501,0.9986805437505732,0.05130436845210627,0.0022291789140955094,-0.000045964018708100074
1715269858208844300,0.15184423828125,0.033718448132276535,0.00033681513741612434,-0.005699768662452698,0.004611641634255648,-0.10260342806577682,-0.9947116374969482,-0.0010868650861084461,0.0019106939435005188,0.0009220242500305176,0.998677076567996,0.05136987508988355,0.0023043760377198,-0.00008746907025514172
1715269858218834400,0.16183447265625,0.0321759432554245,0.006450900342315435,-0.0060134888626635075,0.004745713900774717,-0.10289787501096725,-0.9946805834770203,-0.004654161632061005,0.0068285465240478516,0.0007078051567077637,0.9986692788359609,0.051517782389849276,0.002369718757412015,-0.000122125469398493
1715269858228824300,0.17182421875,0.005464331712573767,0.005362998694181442,-0.003226490691304207,0.004863842390477657,-0.10307975113391876,-0.9946612119674683,-0.004848584532737732,0.009085625410079956,-0.0008984804153442383,0.9986644366982746,0.0516091668960698,0.0024274451738407095,-0.00014954655101684367
1715269858238814500,0.181814453125,-0.009371072985231876,0.010007019154727459,0.004759530071169138,0.004987343680113554,-0.10301147401332855,-0.994667649269104,-0.004270181059837341,0.009459853172302246,0.005119919776916504,0.9986660396420891,0.05157490348897424,0.002489402333733584,-0.0001471707474556272
1715269858248804400,0.191804443359375,0.005192743148654699,0.007417627610266209,0.01098000817000866,0.005078327842056751,-0.10294706374406815,-0.9946738481521606,-0.002469074446707964,0.008815616369247437,0.01301497220993042,0.9986675543977911,0.051542482926330804,0.0025370123663645792,-0.00010732718660017015
1715269858258794200,0.201794189453125,0.024511847645044327,0.004183485172688961,0.007876360788941383,0.005152668803930283,-0.10308931767940521,-0.9946587681770325,0.0003710128366947174,0.01277255266904831,0.01394587755203247,0.9986637387526207,0.051613796213816655,0.002576403683900854,-0.00006536166625609185
1715269858268784400,0.211784423828125,0.022209595888853073,0.004085746593773365,0.007978692650794983,0.005148237105458975,-0.10334362089633942,-0.994632363319397,0.0025574485771358013,0.019832290709018707,0.012012183666229248,0.998657172054332,0.051741330103357505,0.002576812813422716,-0.000014804861413142412
1715269858278774300,0.221774169921875,0.021438878029584885,0.0042854840867221355,0.011759849265217781,0.0051719676703214645,-0.10354690998792648,-0.9946111440658569,0.0025642365217208862,0.01806718111038208,0.009549498558044434,0.9986519302458797,0.051843260529380944,0.002591103386730041,0.000031376817225314824
1715269858288765200,0.23176513671875,0.021046381443738937,0.0048293014988303185,0.011266032233834267,0.0051781185902655125,-0.1037096306681633,-0.994594156742096,0.0020545460283756256,0.012217938899993896,0.009608805179595947,0.9986476637547828,0.05192479770795863,0.0025972978431809852,0.00009101677710943168
1715269858298755300,0.24175537109375,0.01571180298924446,0.002897710772231221,0.010331795550882816,0.005136783234775066,-0.1037837415933609,-0.9945866465568542,0.004674617201089859,0.009911686182022095,0.004657447338104248,0.9986457041923813,0.05196186919116067,0.00257938386020538,0.0001443150683694272
1715269858308745500,0.251745361328125,0.02515510469675064,-0.0023750816471874714,0.010091844014823437,0.005053274799138308,-0.10385536402463913,-0.994579553604126,0.004147775005549192,0.01066996157169342,0.00046950578689575195,0.9986439143974486,0.051997697198074996,0.002540273118287858,0.000195985500704432
1715269858318735400,0.2617353515625,0.024227261543273926,-0.0018736086785793304,0.01263835933059454,0.004965322092175484,-0.10396871715784073,-0.9945681691169739,0.004724007099866867,0.011775121092796326,-0.004409492015838623,0.9986410788532332,0.05205447305655758,0.0024990403558648004,0.00024941722889632034
1715269858328725200,0.271725341796875,0.031689438968896866,-0.0029945331625640392,0.016963865607976913,0.004893448669463396,-0.10413624346256256,-0.9945510029792786,0.006642196327447891,0.010309956967830658,-0.010362327098846436,0.99863681890482,0.05213838673533179,0.002467182236609102,0.0003278705516220892
1715269858338715400,0.28171533203125,0.039268527179956436,-0.0031761606223881245,0.017923137173056602,0.004842083901166916,-0.10431327670812607,-0.9945327043533325,0.005442339926958084,0.002659238874912262,-0.01051795482635498,0.9986321206126809,0.05222706649591828,0.002446027304608172,0.0004143357487398913
1715269858348705300,0.291705322265625,0.057157620787620544,-0.003558856900781393,0.019425159320235252,0.004824830684810877,-0.1045105904340744,-0.9945120811462402,0.0012481659650802612,-0.0007140040397644043,-0.007532596588134766,0.9986269277498783,0.05232590787105795,0.0024422579671285194,0.0005062338531111599
1715269858358695200,0.301695068359375,0.06419209390878677,-0.008039891719818115,0.01741740293800831,0.0047921291552484035,-0.10488765686750412,-0.9944725036621094,-0.00346461683511734,0.0007769465446472168,-0.004688262939453125,0.9986169934630422,0.05251500076967294,0.0024308610692043015,0.0005985824789337957
1715269858368685300,0.311685302734375,0.04989837482571602,-0.012767269276082516,0.013166064396500587,0.004703845363110304,-0.10530377179384232,-0.9944289922714233,-0.005497302860021591,-0.0018739476799964905,-0.00230562686920166,0.9986060790752584,0.052723754754771035,0.0023910795814859574,0.0006794648976228279
1715269858378675200,0.32167529296875,0.02649318426847458,-0.015221372246742249,0.013556217774748802,0.004622122272849083,-0.10555677115917206,-0.9944025278091431,-0.002958916127681732,-0.007053077220916748,0.005068421363830566,0.9985994290618257,0.05285064628442025,0.002353910187825513,0.0007483782928111027
1715269858388665000,0.3316650390625,0.01472877711057663,-0.017587857320904732,0.010693052783608437,0.004497523419559002,-0.10559049248695374,-0.9943995475769043,0.002338416874408722,-0.01248200237751007,0.009368419647216797,0.9985986457504076,0.05286748320103109,0.0022946134047664435,0.000806469687548772
1715269858398655500,0.341655517578125,0.03762344270944595,-0.01529567502439022,0.011510376818478107,0.004401549231261015,-0.1056538075208664,-0.9943932294845581,0.0006491094827651978,-0.014814317226409912,0.0046471357345581055,0.9985969367164851,0.052899209509301395,0.002248999587067268,0.0008519874987334974
1715269858408645400,0.351645263671875,0.052873022854328156,-0.02208620309829712,-0.0003821016871370375,0.004310702905058861,-0.10594023764133453,-0.9943631291389465,-0.006492712069302797,-0.012025438249111176,0.0035794973373413086,0.9985894122217995,0.05304301616800351,0.0022047220651470086,0.000872134613226272
1715269858418635300,0.36163525390625,0.04834005609154701,-0.024172255769371986,-0.00860567670315504,0.004173853434622288,-0.10639140754938126,-0.9943155646324158,-0.009575467556715012,-0.00757647305727005,0.0028299689292907715,0.9985775234340812,0.053269679571184544,0.002134889517440928,0.0008433697433536391
1715269858428625400,0.37162548828125,0.02466854453086853,-0.02468171902000904,-0.013222266919910908,0.003961298614740372,-0.10673518478870392,-0.9942795634269714,-0.005655024666339159,-0.01245119422674179,0.001802206039428711,0.9985685176123478,0.053442513424125974,0.0020252756014259646,0.0007807873642535768
1715269858438616300,0.3816162109375,-0.019172675907611847,-0.028882857412099838,-0.02336864359676838,0.003687643213197589,-0.10673670470714569,-0.9942804574966431,0.0011799109634011984,-0.02964632958173752,-0.0003636479377746582,0.9985688421006785,0.053443562865964106,0.0018827687792926859,0.000678335747160197
1715269858448606200,0.391606201171875,-0.10213765501976013,-0.019650474190711975,-0.02261463738977909,0.0034332198556512594,-0.10616675019264221,-0.9943423867225647,0.0015869212802499533,-0.044803686439991,-0.010601401329040527,0.9985844868214753,0.053157614339192874,0.0017496461271162972,0.0005748847487692665
1715269858458596400,0.401596435546875,-0.22852489352226257,0.0019493590807542205,-0.008312929421663284,0.0033289866987615824,-0.10460773855447769,-0.9945079684257507,0.0033238453324884176,-0.05501443147659302,-0.031172513961791992,0.9986259246718303,0.052375019813937676,0.001692143979923122,0.0004835409372098143
1715269858468593700,0.41159375,-0.284060537815094,0.011058701202273369,0.026659369468688965,0.0034198209177702665,-0.10217486321926117,-0.9947605729103088,0.008176866918802261,-0.07079899311065674,-0.05270951986312866,0.9986891992196645,0.05115448602137966,0.0017121546956216614,0
1715269858478583800,0.421583740234375,-0.2695241868495941,0.008519643917679787,0.06993680447340012,0.003529961919412017,-0.09954497963190079,-0.9950268268585205,0.016062330454587936,-0.07692314684391022,-0.06539797782897949,0.9987558625763104,0.04983409307567091,0.0017783112189960308,0.00022309514240187456
1715269858488573700,0.43157373046875,-0.23159225285053253,-0.03477669879794121,0.1164495125412941,0.003311601933091879,-0.09723671525716782,-0.9952557682991028,0.02412370964884758,-0.06047835201025009,-0.07804739475250244,0.9988128839622447,0.04867494617101854,0.001692190270562846,0.0007063290237706021
1715269858498563800,0.441563720703125,-0.2307773232460022,-0.05427183583378792,0.1845923364162445,0.002608609851449728,-0.09499765187501907,-0.995474100112915,0.03083866462111473,-0.02446363866329193,-0.10726332664489746,0.9988668461665587,0.04755074406957163,0.0013738385322271847,0.0014295630381458424
1715269858508553700,0.4515537109375,-0.20806968212127686,-0.04732098430395126,0.25147199630737305,0.001904177712276578,-0.09288090467453003,-0.9956753849983215,0.04762585833668709,-0.02896074950695038,-0.11305868625640869,0.9989150211498904,0.046488182244703205,0.0010709092126858395,0.0025309324647420084
1715269858518543600,0.461543701171875,-0.10491373389959335,0.013574589975178242,0.24968500435352325,0.0015022035222500563,-0.09132612496614456,-0.9958199262619019,0.08031542599201202,-0.06622110307216644,-0.12434303760528564,0.9989473281331958,0.04570768995275404,0.0009244484970328815,0.003771216940719524
1715269858528533800,0.47153369140625,0.12998276948928833,0.08068917691707611,0.26228395104408264,0.0017095013754442334,-0.0915045365691185,-0.99580317735672,0.09194895625114441,-0.06474569439888,-0.20826780796051025,0.9989374143566235,0.045795424662047876,0.0010877257034918736,0.005062061095060966
1715269858538523600,0.481523681640625,0.370750367641449,0.19474785029888153,0.2198169082403183,0.0027442751452326775,-0.09416229277849197,-0.9955530762672424,0.07647936046123505,-0.025817789137363434,-0.3114231824874878,0.9988678822167252,0.047123994551967335,0.001670347594516862,0.006288069974189181
1715269858548513500,0.491513427734375,0.2982791066169739,0.37953925132751465,0.23045498132705688,0.00533573841676116,-0.09767808765172958,-0.9952037334442139,0.0621538907289505,-0.006158202886581421,-0.42482489347457886,0.9987722496052602,0.0488763649671671,0.0030367590988709774,0.007471124617913105
1715269858558503700,0.501503662109375,0.025689922273159027,0.5910171866416931,0.18253538012504578,0.009938376955688,-0.09947209805250168,-0.9949907064437866,0.061625346541404724,-0.09130877256393433,-0.5106397271156311,0.9987093212900016,0.04975343303193093,0.0054070806043951675,0.008660974670806842
1715269858568493600,0.51149365234375,-0.2815455496311188,0.8183483481407166,0.038679879158735275,0.016782710328698158,-0.09811706095933914,-0.9950333833694458,0.07237439602613449,-0.13007836043834686,-0.5551985502243042,0.9987131579585864,0.04903817423744304,0.008864460951150177,0.009415084649947003
1715269859917151500,1.8601513671875,1.2888277769088745,-0.17918314039707184,-0.8143528699874878,-0.04756106063723564,-0.18910853564739227,-0.9808037281036377,0.04525674879550934,-0.09798553586006165,0.042479753494262695,0.6400439057997764,0.07940336178616918,0.05738688209306216,0.7620666468743261
1715269859927141600,1.8701416015625,1.7005691528320312,-0.18210916221141815,-0.8175646066665649,-0.047785572707653046,-0.20398160815238953,-0.9778077602386475,0.04177337884902954,-0.016980871558189392,0.011697530746459961,0.6425884846165201,0.08461006100316008,0.06274751849080258,0.7589359861969807
1715269859937131500,1.880131591796875,2.3386471271514893,-0.17251485586166382,-0.8346075415611267,-0.047745198011398315,-0.22392097115516663,-0.9734371304512024,0.04655477777123451,0.06451244652271271,-0.017712771892547607,0.6448908969814606,0.09145354262534724,0.07012630523891852,0.755535680985061
1715269859947121700,1.89012158203125,3.1073508262634277,-0.2054419070482254,-0.8196205496788025,-0.0476217158138752,-0.25068190693855286,-0.9668974876403809,0.046110864728689194,0.13526445627212524,-0.02481698989868164,0.6467716770526019,0.10063249593123064,0.0801520759654042,0.7517546964098105
1715269859957111600,1.900111572265625,3.934523105621338,-0.25050660967826843,-0.8150652050971985,-0.047704119235277176,-0.2848927080631256,-0.9573716521263123,0.03789248317480087,0.21769306063652039,-0.032237112522125244,0.6480480223159225,0.11253959007747551,0.09300009578005064,0.7474755130749068
1715269859967101700,1.910101806640625,4.715028285980225,-0.2355247139930725,-0.8237961530685425,-0.04753126576542854,-0.3264656364917755,-0.944013237953186,0.03668203204870224,0.3069191873073578,-0.041231513023376465,0.6486311604608479,0.1270809611891702,0.10882931462191626,0.7424850798322045
1715269859977091600,1.920091552734375,5.304593563079834,-0.23390844464302063,-0.8134915828704834,-0.04686552286148071,-0.3738081157207489,-0.926321268081665,0.027273006737232208,0.3492873013019562,-0.04816603660583496,0.648388843879162,0.1437453256405094,0.12718744059947082,0.7367173787902395
1715269859987081500,1.93008154296875,5.610317230224609,-0.25535833835601807,-0.8322014808654785,-0.04584256932139397,-0.4242842495441437,-0.9043679237365723,0.014165088534355164,0.34165796637535095,-0.049764156341552734,0.647394211634912,0.1618119142340183,0.14708142076060002,0.7301127714603686
1715269859997071600,1.940071533203125,5.616371154785156,-0.2908018231391907,-0.8149508833885193,-0.04459111765027046,-0.47481420636177063,-0.8789556622505188,0.01804058998823166,0.3032902181148529,-0.012188136577606201,0.6457901266710672,0.1803451829446446,0.167325362931175,0.7227951647564024
1715269860007061500,1.9500615234375,5.39506721496582,-0.3024635314941406,-0.7824671268463135,-0.04319387301802635,-0.5228660702705383,-0.8513197898864746,0.025478176772594452,0.2278069257736206,0.02746725082397461,0.6437080471485696,0.1984848679473696,0.18693278141710917,0.7150523506573127
1715269860017051400,1.960051513671875,5.036806583404541,-0.3285446763038635,-0.7367275953292847,-0.041719984263181686,-0.5668753385543823,-0.8227464556694031,0.037325214594602585,0.1465567946434021,0.060005366802215576,0.6413108245501767,0.21563424812975235,0.20525260431642822,0.7071729618453086
1715269860027041800,1.970041748046875,4.594635009765625,-0.3614845275878906,-0.691797137260437,-0.04032186046242714,-0.6061500310897827,-0.7943275570869446,0.047355927526950836,0.06597369909286499,0.07463151216506958,0.6387932766059807,0.23150966280096627,0.22189974742185947,0.699361722743826
1715269860037031700,1.98003173828125,4.059797763824463,-0.43705010414123535,-0.6454560160636902,-0.03927389159798622,-0.6401966214179993,-0.7672064900398254,0.05170956999063492,0.004454493522644043,0.08121711015701294,0.63640819794533,0.24592264706439768,0.23647156194672614,0.6918004019448697
1715269860047021600,1.990021484375,3.520247459411621,-0.5205684304237366,-0.6015548706054688,-0.03882792592048645,-0.6690211296081543,-0.7422284483909607,0.04746416583657265,-0.017029166221618652,0.0879773497581482,0.634364605348576,0.25885553563531444,0.24875606949090717,0.6846135579239517
1715269860057011700,2.00001171875,2.968602418899536,-0.5574548244476318,-0.5533290505409241,-0.038845598697662354,-0.6929415464401245,-0.719946563243866,0.040310200303792953,-0.010732710361480713,0.10550558567047119,0.6327210563456629,0.2702262444776822,0.25885228639047847,0.6779655728965915
1715269860067001600,2.010001708984375,2.391199827194214,-0.6242572665214539,-0.5101820230484009,-0.03926616534590721,-0.7121939659118652,-0.700883686542511,0.03172808885574341,-0.01645892858505249,0.12477278709411621,0.6316088036041914,0.2799796216351916,0.26677627713373214,0.6719465007068778
1715269860076991500,2.019991455078125,1.839707612991333,-0.681847870349884,-0.4529736042022705,-0.04035833105444908,-0.726974368095398,-0.6854775547981262,0.02786114439368248,-0.0488128662109375,0.13254481554031372,0.6311122780925558,0.28817220118991066,0.27242982665396903,0.666660324545595
1715269860086981600,2.029981689453125,1.39988112449646,-0.6754642724990845,-0.4356519281864166,-0.041742607951164246,-0.7380892634391785,-0.6734105348587036,0.030466124415397644,-0.06998562812805176,0.1294347047805786,0.6311666015319637,0.2949029947894847,0.2762733394280558,0.6620679091426188
1715269860096972500,2.03997265625,1.0515086650848389,-0.6644781827926636,-0.41566625237464905,-0.04306803643703461,-0.7464324235916138,-0.6640660166740417,0.026100032031536102,-0.08530879020690918,0.10782206058502197,0.6316817928926617,0.30037761174178207,0.2788194455965797,0.6580356793599916
1715269860106962700,2.049962646484375,0.789148211479187,-0.663932740688324,-0.39472368359565735,-0.044447869062423706,-0.7526317238807678,-0.6569397449493408,0.002043459564447403,-0.09619933366775513,0.05317997932434082,0.6325599289252642,0.30488420126776,0.28031367990515577,0.6544751573132754
1715269860116952600,2.05995263671875,0.5915861129760742,-0.6415808796882629,-0.38657146692276,-0.045794639736413956,-0.7573022842407227,-0.6514567732810974,-0.014844026416540146,-0.07233321666717529,0.011350631713867188,0.6336950645159349,0.3086509657288284,0.28108038816424413,0.6512747289635046
1715269860126942700,2.069942626953125,0.4145037829875946,-0.6230447292327881,-0.384442538022995,-0.04699127376079559,-0.7607164978981018,-0.647381067276001,-0.02089531347155571,-0.04931151866912842,-0.010577917098999023,0.6350538311677314,0.3117458115463614,0.2812899306884684,0.6483804347494995
1715269860136932600,2.0799326171875,0.2696472704410553,-0.6039386987686157,-0.38792115449905396,-0.048021942377090454,-0.7630887031555176,-0.6445072293281555,-0.02209242433309555,-0.046451032161712646,-0.022820651531219482,0.6366237141173499,0.31426402264802084,0.28104184861222464,0.6457273588040031
1715269860146922500,2.089922607421875,0.1611229032278061,-0.5946080088615417,-0.3816573917865753,-0.048953086137771606,-0.7646338939666748,-0.6426029801368713,-0.020352564752101898,-0.04519575834274292,-0.03886979818344116,0.6383685485308357,0.31633203452937764,0.28041495958427376,0.6432628137083246
1715269860156912600,2.09991259765625,0.09187804907560349,-0.5899869203567505,-0.3707003593444824,-0.0498732328414917,-0.7656169533729553,-0.6413605213165283,-0.027031298726797104,-0.03461486101150513,-0.05143427848815918,0.6402034115635974,0.3181000962521336,0.2795211267359416,0.6409523224647433
1715269860166902500,2.109902587890625,0.07058575749397278,-0.5431738495826721,-0.38038191199302673,-0.05067606642842293,-0.7663018703460693,-0.6404790282249451,-0.031721629202365875,-0.009805798530578613,-0.04865372180938721,0.6420672280034031,0.3196542980959543,0.27853478268134957,0.6387403235246669
1715269860176892400,2.119892333984375,0.08390678465366364,-0.4875316619873047,-0.3908572494983673,-0.05101269856095314,-0.7669896483421326,-0.6396283507347107,-0.03422313183546066,0.014807701110839844,-0.04976367950439453,0.6438914084992775,0.3210063750328038,0.27774217952582275,0.6365672732038676
1715269860186882600,2.129882568359375,0.08003731071949005,-0.4505757689476013,-0.39244282245635986,-0.05102375149726868,-0.767713189125061,-0.6387588977813721,-0.04547306150197983,0.02119225263595581,-0.06064295768737793,0.6456537859460176,0.3222245736984302,0.27711346818622595,0.6344371352182638
1715269860196872200,2.1398720703125,0.08067966997623444,-0.39311274886131287,-0.38570636510849,-0.050750281661748886,-0.7684237360954285,-0.6379258632659912,-0.05563423037528992,0.027411162853240967,-0.06945633888244629,0.6473340752470943,0.32328753110678166,0.2766265404082182,0.6323934785897637
1715269860206862300,2.1498623046875,0.07748467475175858,-0.34604963660240173,-0.37649667263031006,-0.05018717050552368,-0.7691242098808289,-0.6371257305145264,-0.05894392728805542,0.03477978706359863,-0.07199597358703613,0.6489115510969555,0.32418673689112154,0.27629709798753965,0.6304575118622187
1715269860216852500,2.1598525390625,0.05068635195493698,-0.31198620796203613,-0.3602750897407532,-0.04946374520659447,-0.7697209119796753,-0.6364614367485046,-0.055379629135131836,0.01975148916244507,-0.06995952129364014,0.6504126941615804,0.32492750348228666,0.2760279214330074,0.6286446526798931
1715269860226842400,2.16984228515625,0.026343300938606262,-0.280913770198822,-0.33562567830085754,-0.04867568612098694,-0.7701421976089478,-0.6360123157501221,-0.036850057542324066,-0.0005333423614501953,-0.06627345085144043,0.6518454024649326,0.3255062898704625,0.2757525857378895,0.6269798935106382
1715269860236832300,2.179832275390625,-0.007239691447466612,-0.259880393743515,-0.31336405873298645,-0.047911547124385834,-0.7703487873077393,-0.6358201503753662,-0.011903136968612671,-0.006201505661010742,-0.06359696388244629,0.6532170860932045,0.3259358130134847,0.27541925278001733,0.6254738751571752
1715269860246822400,2.189822509765625,-0.015157269313931465,-0.24794383347034454,-0.29458290338516235,-0.047207411378622055,-0.7704207897186279,-0.6357855200767517,0.002575218677520752,0.0006301999092102051,-0.06479126214981079,0.6545214272994161,0.32627680858873154,0.27504670848901386,0.624094829308039
1715269860256812300,2.199812255859375,-0.04948541522026062,-0.23818999528884888,-0.2886408567428589,-0.046519968658685684,-0.7703839540481567,-0.6358808279037476,0.01574275642633438,0.014066934585571289,-0.06596243381500244,0.6558043101212491,0.3265476430635897,0.2746383267452024,0.6227850280060461
1715269860266802400,2.209802490234375,-0.1113901138305664,-0.24279408156871796,-0.26906469464302063,-0.04593442752957344,-0.7700038552284241,-0.6363835334777832,0.029042713344097137,0.013625800609588623,-0.0673365592956543,0.6571344299361397,0.3266643468553503,0.27404128773675673,0.6215835361084648
1715269860276793300,2.21979345703125,-0.16763713955879211,-0.223289355635643,-0.2604008913040161,-0.045408327132463455,-0.7692232131958008,-0.6373646259307861,0.04165443032979965,0.004086554050445557,-0.05460619926452637,0.6584999754519862,0.32656795170981684,0.2732600370766838,0.6205320837075761
1715269860286783200,2.229783203125,-0.23071444034576416,-0.21541038155555725,-0.25163641571998596,-0.044852450489997864,-0.7680604457855225,-0.6388046741485596,0.05222221091389656,-0.009679973125457764,-0.03743433952331543,0.6599121036011514,0.32623991930030716,0.27233286617285035,0.6196114208733352
1715269860296773400,2.2397734375,-0.24579697847366333,-0.21364177763462067,-0.24802972376346588,-0.04434679076075554,-0.7666160464286804,-0.6405724883079529,0.056599367409944534,-0.015686750411987305,-0.032217979431152344,0.661368096956261,0.3257741036238198,0.27126553845380114,0.6187716156161274
1715269860306763500,2.249763427734375,-0.22834740579128265,-0.21665647625923157,-0.2579178810119629,-0.04381147399544716,-0.7652129530906677,-0.6422847509384155,0.059192098677158356,0.0064849853515625,-0.03306925296783447,0.6628191063193045,0.32532076762831114,0.2702295718731099,0.6179103219585682
1715269860316753400,2.25975341796875,-0.20987892150878906,-0.20713567733764648,-0.25915998220443726,-0.043222665786743164,-0.7639085650444031,-0.6438753604888916,0.06119728088378906,0.02724480628967285,-0.0427396297454834,0.6642637940824077,0.3249061953403019,0.26925505956252865,0.6170018380638795
1715269860326743300,2.269743408203125,-0.1676422506570816,-0.17532208561897278,-0.2539702355861664,-0.04251822456717491,-0.762785792350769,-0.6452519297599792,0.05922636389732361,0.03346151113510132,-0.05212056636810303,0.6656198620577995,0.32452218896493074,0.26843880476005366,0.6160975081225236
1715269860336733400,2.2797333984375,-0.13821564614772797,-0.16576693952083588,-0.24008770287036896,-0.041750434786081314,-0.761914849281311,-0.6463301181793213,0.05339265614748001,0.034879446029663086,-0.05218672752380371,0.6668519311054872,0.3242176864698995,0.2678018409007993,0.6152020699308903
1715269860346723300,2.289723388671875,-0.06831018626689911,-0.15177974104881287,-0.22958053648471832,-0.04100530222058296,-0.7613105177879333,-0.6470895409584045,0.04192059114575386,0.03502267599105835,-0.04469817876815796,0.6679551145288498,0.3240329582575224,0.26731603056766723,0.6143133167361241
1715269860356713200,2.299713134765625,0.02436702325940132,-0.13898804783821106,-0.2181699573993683,-0.04026063159108162,-0.7612642645835876,-0.6471906304359436,0.03427895903587341,0.05063199996948242,-0.030696213245391846,0.6688673580302078,0.3241149798162361,0.2671219760707623,0.613360994659207
1715269860366703400,2.309703369140625,0.08970730751752853,-0.13060362637043,-0.20703747868537903,-0.039504021406173706,-0.761721670627594,-0.6466988325119019,0.030577402561903,0.058551013469696045,-0.03454500436782837,0.6696118287613081,0.324435872153142,0.26719273450487585,0.6123472886338212
1715269860376693200,2.319693359375,0.11364459991455078,-0.12340669333934784,-0.17908573150634766,-0.03885932266712189,-0.7624812126159668,-0.6458423137664795,0.026270586997270584,0.05453455448150635,-0.04039120674133301,0.6702023474495518,0.32492383752166276,0.2674010751242474,0.6113509304624061
1715269860386683100,2.32968310546875,0.09685038775205612,-0.11736132204532623,-0.15296998620033264,-0.03839828446507454,-0.7632351517677307,-0.6449787020683289,0.025275491178035736,0.04504978656768799,-0.03284716606140137,0.6706956016252036,0.3254382691174319,0.26758283002468053,0.6104560807126588
1715269860396673300,2.33967333984375,0.08988568931818008,-0.10892708599567413,-0.1469043642282486,-0.03799871355295181,-0.7638911604881287,-0.6442254185676575,0.02692059800028801,0.028875291347503662,-0.02435368299484253,0.6711505490402477,0.32589923463184217,0.2677255704136378,0.6096470916227623
1715269860406663400,2.349663330078125,0.06750048696994781,-0.10197411477565765,-0.1269966959953308,-0.03764388710260391,-0.7644502520561218,-0.6435827016830444,0.02484152838587761,0.0208132266998291,-0.024614930152893066,0.6715779707363314,0.3263053592054535,0.2678310393331602,0.6089123696809378
1715269860416653300,2.3596533203125,0.04165850579738617,-0.09712928533554077,-0.1147935688495636,-0.037398841232061386,-0.7648352384567261,-0.6431394219398499,0.013533860445022583,0.018466830253601074,-0.02241837978363037,0.6719855957143636,0.32663527520215346,0.26784263717160905,0.6082803336641246
1715269860426643500,2.3696435546875,0.037255071103572845,-0.09826432168483734,-0.10914719849824905,-0.03720076009631157,-0.7651089429855347,-0.6428253054618835,0.007506921887397766,0.019839167594909668,-0.013165295124053955,0.6723888398998656,0.32691112172677955,0.2677993076791225,0.6077053754775613
1715269860436633300,2.37963330078125,0.06787209957838058,-0.09292975068092346,-0.1053687036037445,-0.037000466138124466,-0.7654563784599304,-0.6424230933189392,0.005811270326375961,0.017165422439575195,-0.010408878326416016,0.6727631147460552,0.3272206564968348,0.26779671935897786,0.6071254511981952
1715269860446623200,2.389623291015625,0.10963830351829529,-0.07844161987304688,-0.11048949509859085,-0.0367407500743866,-0.7660680413246155,-0.641708493232727,-0.001696370542049408,0.017639756202697754,-0.01812732219696045,0.6730598664985356,0.3276422360327857,0.2679483349812917,0.6065019232603513
1715269860456613400,2.39961328125,0.11736120283603668,-0.07757395505905151,-0.10894912481307983,-0.03643190860748291,-0.7668367028236389,-0.6408074498176575,-0.009573571383953094,0.02287924289703369,-0.02475041151046753,0.6732990462990568,0.3281209363834961,0.268203167703984,0.6058646983506726
1715269860466604300,2.409604248046875,0.11506043374538422,-0.07235629856586456,-0.10466829687356949,-0.035543158650398254,-0.7667253017425537,-0.6409906148910522,-0.017130419611930847,0.028062641620635986,-0.014114975929260254,0.6738274815847864,0.3279462554293094,0.2682460349169466,0.6053526312031173
1715269860476594200,2.41959423828125,0.0926898866891861,-0.08309762179851532,-0.09837684035301208,-0.03466225415468216,-0.7667688131332397,-0.6409868001937866,-0.018774259835481644,0.02239936590194702,0.007151961326599121,0.6743171203763768,0.3278571571349803,0.2683584820480198,0.6048056027308097
1715269860486584300,2.429584228515625,0.07325972616672516,-0.09258885681629181,-0.09474309533834457,-0.03394769877195358,-0.7667811512947083,-0.6410102844238281,-0.01309538260102272,0.011822104454040527,0.023517608642578125,0.6748003327599588,0.32780901684877917,0.26839542701954877,0.6042761539268438
1715269860496574500,2.439574462890625,0.023367805406451225,-0.10386815667152405,-0.09305624663829803,-0.033675406128168106,-0.766737163066864,-0.6410773396492004,-0.010087039321660995,0.007078409194946289,0.031137704849243164,0.6752609729403379,0.3278824783562831,0.26824320942016266,0.6037891199908685
1715269860506564400,2.449564453125,-0.057720281183719635,-0.10045397281646729,-0.08751573413610458,-0.033581268042325974,-0.7663747668266296,-0.6415154337882996,-0.007617693394422531,-0.0032022595405578613,0.027547597885131836,0.6757792310647536,0.3278450581483065,0.2678803662474795,0.6033905883134362
1715269860516554200,2.45955419921875,-0.14551803469657898,-0.08441215753555298,-0.08233881741762161,-0.03349471092224121,-0.7655333876609802,-0.6425237059593201,-0.009108062833547592,-0.011260986328125,0.01720327138900757,0.6763834328303938,0.327542185552977,0.26730929775263373,0.6031312739298357
1715269860526544400,2.46954443359375,-0.2107323557138443,-0.07364259660243988,-0.07860107719898224,-0.03347357362508774,-0.7641178965568542,-0.6442075371742249,-0.016422897577285767,-0.019298791885375977,0.008388996124267578,0.6770830530415501,0.32694008647688894,0.26647029822737645,0.6030441619868665
1715269860536534300,2.4795341796875,-0.22178314626216888,-0.0694771558046341,-0.0707428827881813,-0.03363944590091705,-0.7623049020767212,-0.6463432312011719,-0.02173493802547455,-0.017800629138946533,0.005092620849609375,0.6778204117271003,0.32617372362797664,0.2654036539548453,0.6031011138159748
1715269860546524200,2.489524169921875,-0.21480023860931396,-0.06830856204032898,-0.06591577082872391,-0.03402101248502731,-0.7605728507041931,-0.6483606696128845,-0.02104819193482399,-0.007340967655181885,0.0039820075035095215,0.6784909712116457,0.3255129390854902,0.26431231807695155,0.6031834794920732
1715269860556514300,2.499514404296875,-0.1985381692647934,-0.058393608778715134,-0.057415757328271866,-0.03442860767245293,-0.759238064289093,-0.6499016880989075,-0.017771940678358078,0.007529139518737793,-0.0038306117057800293,0.6790350236807269,0.32505996246951246,0.26341067856438893,0.603209877181135
1715269860566504200,2.509504150390625,-0.13681179285049438,-0.0382009893655777,-0.04957008734345436,-0.03461788222193718,-0.7584560513496399,-0.6508041024208069,-0.015583768486976624,0.016009211540222168,-0.013014256954193115,0.6794151139130287,0.3248032573398186,0.2628703069104995,0.6031559001415535
1715269860576494300,2.519494384765625,-0.07769574970006943,-0.019122902303934097,-0.04203733429312706,-0.034665051847696304,-0.7582232356071472,-0.6510728001594543,-0.0175507552921772,0.016600370407104492,-0.015263259410858154,0.6796169049281844,0.3247620737076245,0.2626655677739096,0.6030398937434773
1715269860586484500,2.529484375,-0.00827113352715969,-0.02100256271660328,-0.03378833085298538,-0.03466252237558365,-0.7584382891654968,-0.6508223414421082,-0.023153260350227356,0.0247652530670166,-0.01697850227355957,0.6796881562408763,0.32492782217405425,0.26269892635095266,0.6028557629349173
1715269860596474400,2.539474365234375,0.04631887376308441,-0.02586948871612549,-0.03201413154602051,-0.034742679446935654,-0.7590197324752808,-0.6501399278640747,-0.02342405915260315,0.04225343465805054,-0.009177088737487793,0.6796531867752248,0.32530975635432247,0.2628756369646969,0.6026121273746912
1715269860606464500,2.549464599609375,0.05543961375951767,-0.030471961945295334,-0.026083003729581833,-0.035000573843717575,-0.7597167491912842,-0.6493114829063416,-0.01748989149928093,0.040646374225616455,-0.014018535614013672,0.6795688681291346,0.325810452265122,0.26304333762487675,0.6023635815045913
1715269860616454400,2.559454345703125,0.03743398189544678,-0.0262931976467371,-0.008150076493620872,-0.03544711694121361,-0.760284423828125,-0.648622453212738,-0.010268446058034897,0.029007017612457275,-0.018384993076324463,0.679469002821674,0.326294001291966,0.2630988358963599,0.6021902387048941
1715269860626444300,2.5694443359375,0.028269724920392036,-0.019124766811728477,0.002378331497311592,-0.03595474362373352,-0.7605851292610168,-0.6482418179512024,-0.010020218789577484,0.01694810390472412,-0.013852298259735107,0.6793707589840117,0.3266324615931951,0.2630405545667891,0.6021429469915424
1715269860636434400,2.579434326171875,0.005117269232869148,-0.018040593713521957,-0.0014518268872052431,-0.03640700504183769,-0.760578453540802,-0.6482243537902832,-0.015351038426160812,0.006184041500091553,-0.011260449886322021,0.6793417253856882,0.32678557184222534,0.26286690221022674,0.6021684402723216
1715269860646424300,2.58942431640625,-0.05836327373981476,-0.0012735985219478607,0.0022633494809269905,-0.03673594444990158,-0.7601044178009033,-0.6487616300582886,-0.015769779682159424,-0.0005918741226196289,-0.01429373025894165,0.6794223510087012,0.32664399061114585,0.2625316872509623,0.6023005881627053
1715269860656415200,2.599415283203125,-0.11671153455972672,0.009633110836148262,0.0008433519396930933,-0.03699861094355583,-0.7591943144798279,-0.6498115062713623,-0.013508208096027374,-0.010352134704589844,-0.01228255033493042,0.6795924123567801,0.32624098337514656,0.2620325895418215,0.6025443643083048
1715269860666405000,2.609405029296875,-0.12041401863098145,0.018198370933532715,0.001660542911849916,-0.0372588187456131,-0.7580515742301941,-0.6511294841766357,-0.011844199150800705,-0.028859436511993408,0.0006015300750732422,0.6797930115168889,0.3257044270107201,0.26144191684985196,0.6028649929919042
1715269860676395500,2.6193955078125,-0.07179775089025497,0.004755265545099974,0.004775908775627613,-0.03752889111638069,-0.7570722103118896,-0.6522524356842041,-0.008201934397220612,-0.032753169536590576,0.0038607120513916016,0.6799600779632395,0.3252615307955918,0.2609190007333384,0.6031421806444035
1715269860686385400,2.629385498046875,0.007884186692535877,-0.002464297693222761,0.002098033670336008,-0.03778925538063049,-0.7564945816993713,-0.6529073715209961,-0.00682767853140831,-0.016836106777191162,0.0023183822631835938,0.6800549553958161,0.32503717942136556,0.2605708347893654,0.6033067218189124
1715269860696375300,2.639375244140625,0.09759782254695892,-0.013389648869633675,-0.005130584351718426,-0.03795216977596283,-0.756538450717926,-0.6528469324111938,-0.0041318051517009735,-0.0003737211227416992,0.00033533573150634766,0.6800295118995385,0.32511506801837003,0.2605316015665235,0.6033102783672111
1715269860706365400,2.649365478515625,0.1680002063512802,-0.02671850472688675,-0.008962607011198997,-0.038173120468854904,-0.7572334408760071,-0.6520277857780457,0.0005904883146286011,0.0039223432540893555,0.00688624382019043,0.6798804559871671,0.32557078953947144,0.2607484788089673,0.6031387386002715
1715269860716355300,2.659355224609375,0.2056698203086853,-0.040410347282886505,-0.014976823702454567,-0.03852205350995064,-0.7583771347999573,-0.6506766676902771,0.005715426057577133,0.0010682344436645508,0.012935638427734375,0.6796408074032804,0.32631891278758324,0.261108448278435,0.6028488582872874
1715269860726345200,2.66934521484375,0.17185474932193756,-0.05042596533894539,-0.010816233232617378,-0.03891737386584282,-0.7595391869544983,-0.649296224117279,0.008628442883491516,-0.008710265159606934,0.012089192867279053,0.6794201058048992,0.32710614264941346,0.261444933562771,0.6025250092864525
1715269860736335400,2.67933544921875,0.11819471418857574,-0.05847776681184769,-0.010481740348041058,-0.03934846445918083,-0.7604458332061768,-0.6482082009315491,0.005672082304954529,-0.028967678546905518,0.011733591556549072,0.6792754725232535,0.32777974216833045,0.2616416159725197,0.6022366207964633
1715269860746325200,2.6893251953125,0.06673216819763184,-0.06544992327690125,-0.013549502938985825,-0.039752960205078125,-0.76115882396698,-0.6473460793495178,0.00415397435426712,-0.04333031177520752,0.016563057899475098,0.6791966639559155,0.3283502550173366,0.261749989890501,0.6019675557871761
1715269860756315100,2.699315185546875,0.03553083539009094,-0.06695780158042908,-0.012971330434083939,-0.0401352196931839,-0.7616105079650879,-0.6467910408973694,0.004780370742082596,-0.048325955867767334,0.01654195785522461,0.6792127260191532,0.3287883158705221,0.26173027607115623,0.6017189002128772
1715269860766305300,2.70930517578125,0.05395495519042015,-0.06998369097709656,-0.01859765686094761,-0.04052596911787987,-0.761938214302063,-0.6463804244995117,0.001509014517068863,-0.04131484031677246,0.015261709690093994,0.6792640337470455,0.3291665152763655,0.26164706799875814,0.6014901838058284
1715269860776295400,2.71929541015625,0.09258543699979782,-0.07883337140083313,-0.021285053342580795,-0.04088158532977104,-0.762334942817688,-0.6458901166915894,-0.0011108368635177612,-0.022088825702667236,0.012070536613464355,0.6793146448936491,0.3295751995923294,0.261601075284006,0.6012292017587072
1715269860786285300,2.729285400390625,0.13410604000091553,-0.08564227819442749,-0.02146681398153305,-0.04121803864836693,-0.7630147337913513,-0.645065426826477,-0.0030479393899440765,-0.00918668508529663,0.003494441509246826,0.6793191655950575,0.33013750571380196,0.2616801527050594,0.6008810210303906
1715269860796275500,2.739275390625,0.1901208460330963,-0.08450323343276978,-0.03350989148020744,-0.04142233729362488,-0.7641009092330933,-0.6437654495239258,-0.004277966916561127,0.007768571376800537,0.0029879212379455566,0.6792549585799619,0.33088048168714684,0.2619835809720045,0.600412612277695
1715269860806265300,2.749265380859375,0.22000309824943542,-0.0902245044708252,-0.03125612810254097,-0.04153483361005783,-0.7655358910560608,-0.6420509815216064,-0.003967106342315674,0.013918578624725342,0.0009987950325012207,0.6791354797523735,0.33179036268569667,0.2624683814230598,0.5998335952175324
1715269860816255200,2.759255126953125,0.20914165675640106,-0.08388325572013855,-0.029312022030353546,-0.04174857214093208,-0.7671435475349426,-0.6401154398918152,-0.00386018306016922,0.004463553428649902,-0.00020432472229003906,0.6789479592735422,0.33282286256630783,0.26300419721994256,0.5992390300498133
1715269860826245400,2.769245361328125,0.17703315615653992,-0.0762794017791748,-0.03436283767223358,-0.04191818833351135,-0.7687174677848816,-0.6382132768630981,-0.0008829459547996521,0.004557430744171143,0.00199812650680542,0.6787605591399514,0.3338208861647803,0.2635469024114979,0.5986573770871683
1715269860836236300,2.779236328125,0.13485215604305267,-0.06295241415500641,-0.03692266717553139,-0.041977208107709885,-0.7700514197349548,-0.6365992426872253,-0.00093073770403862,0.0020461082458496094,0.006701231002807617,0.6786369470761304,0.33465308520901943,0.26402212973524253,0.5981232076132222
1715269860846226200,2.78922607421875,0.08108457922935486,-0.055752817541360855,-0.037953246384859085,-0.042008787393569946,-0.7710126638412476,-0.6354326009750366,-0.0030048713088035583,-0.01052713394165039,0.010646224021911621,0.6785875201540228,0.3352678715999092,0.26434666923963906,0.5976914619804172
1715269860856216300,2.79921630859375,0.04013235121965408,-0.043958745896816254,-0.04226650297641754,-0.042017802596092224,-0.7714790105819702,-0.6348658204078674,-0.0015615299344062805,-0.017934441566467285,0.01795297861099243,0.6786569992715268,0.33560557937866903,0.2644541355801478,0.59737550351639
1715269860866206500,2.80920654296875,0.03873413801193237,-0.028851430863142014,-0.041081130504608154,-0.0419645756483078,-0.7716853618621826,-0.6346185207366943,-0.0008212998509407043,-0.012952089309692383,0.018697500228881836,0.6787766604208327,0.3357729051390276,0.26447551669717817,0.5971360187431722
1715269860876196400,2.8191962890625,0.07605647295713425,-0.019185753539204597,-0.04127873480319977,-0.04185621067881584,-0.7719065546989441,-0.6343565583229065,-0.003737282007932663,-0.003758668899536133,0.01613152027130127,0.678868660511599,0.335916958968543,0.26454017574224264,0.5969217540792195
1715269860886186200,2.829186279296875,0.12844118475914001,-0.008944034576416016,-0.04351126402616501,-0.04167744889855385,-0.7723845839500427,-0.6337863206863403,-0.004541654139757156,0.005493104457855225,0.018857121467590332,0.6788782555260283,0.33616566224369276,0.2647630965747568,0.5966719892055413
1715269860896176400,2.83917626953125,0.19340366125106812,-0.01192198134958744,-0.04515736177563667,-0.04146670177578926,-0.7733095288276672,-0.6326712369918823,-0.0020515955984592438,0.02132594585418701,0.019466280937194824,0.6787674804171738,0.3366417235767403,0.2652107525281642,0.5963306731486928
1715269860906166300,2.849166259765625,0.2500477731227875,-0.008212464861571789,-0.03887902945280075,-0.041248075664043427,-0.7746502757072449,-0.6310432553291321,-0.0002713203430175781,0.03833746910095215,0.02175980806350708,0.6785437153026009,0.3373386428034642,0.26585902970388253,0.5959027105030824
1715269860916156400,2.859156494140625,0.25842660665512085,-0.012005072087049484,-0.03790883719921112,-0.041036635637283325,-0.7762407064437866,-0.6290995478630066,0.0012109652161598206,0.040355145931243896,0.021647155284881592,0.6782425166954751,0.3381708483882836,0.26662839702631147,0.595429897972837
1715269860926146300,2.869146240234375,0.2389858365058899,-0.022053444758057594,-0.03302866220474243,-0.04090844839811325,-0.7778809070587158,-0.6270787119865417,0.006057143211364746,0.02917802333831787,0.022937476634979248,0.6779314718316055,0.3390665436076854,0.26738461897624916,0.5949353476392717
1715269860936136200,2.87913623046875,0.17544308304786682,-0.027878576889634132,-0.026966774836182594,-0.040861357003450394,-0.7792884111404419,-0.6253317594528198,0.011320110410451889,0.01502150297164917,0.027812838554382324,0.6776702276586668,0.33986459533873625,0.26800408171041484,0.5944987182247289
1715269860946126300,2.889126220703125,0.11678318679332733,-0.03176785632967949,-0.018981285393238068,-0.04088734835386276,-0.7802636027336121,-0.6241127848625183,0.009255651384592056,0.0027826428413391113,0.036313772201538086,0.6775105932022374,0.34045107442488326,0.26839647022405094,0.5941679768878843
1715269860956116500,2.899116455078125,0.054761096835136414,-0.03519827499985695,-0.017840120941400528,-0.040988415479660034,-0.7808051109313965,-0.6234287023544312,0.00848696380853653,-0.01207202672958374,0.04422032833099365,0.6774549243650463,0.34082500173418523,0.2685590645015952,0.5939437196789642
1715269860966106400,2.9091064453125,0.003813651856034994,-0.04538033902645111,-0.01544913463294506,-0.041160158812999725,-0.7809637784957886,-0.6232186555862427,0.009955700486898422,-0.02384573221206665,0.042514920234680176,0.6775032846859158,0.341017755893292,0.26850990094305416,0.5938002201794493
1715269860976096500,2.919096435546875,-0.04429182410240173,-0.051905084401369095,-0.013423800468444824,-0.04138999804854393,-0.7807904481887817,-0.6234204173088074,0.010353390127420425,-0.02270674705505371,0.03879523277282715,0.6776516910514561,0.3410564330178874,0.2682728184238232,0.5937156073068777
1715269860986086400,2.92908642578125,-0.07264623790979385,-0.05528703331947327,-0.013346969150006771,-0.04163822531700134,-0.780340850353241,-0.6239666938781738,0.006817437708377838,-0.015466034412384033,0.03699159622192383,0.6778807525334103,0.3409540349791639,0.26789362945982503,0.5936842689796633
1715269860996076300,2.939076171875,-0.05697593092918396,-0.04146495833992958,-0.013231388293206692,-0.041846249252557755,-0.7798495888710022,-0.6245666146278381,0.0025088563561439514,-0.011135399341583252,0.03736269474029541,0.678120294960706,0.3408136095598198,0.26751217588907716,0.5936633803514859
1715269861006066400,2.94906640625,0.45216524600982666,-0.28444594144821167,0.04962360858917236,-0.043059393763542175,-0.7808128595352173,-0.6232793927192688,0.0018909499049186707,-0.010721564292907715,0.0322149395942688,0.6780966345334026,0.34190488443140055,0.26732256321472,0.5931480855153878
1715269861016056300,2.959056396484375,0.18315613269805908,-0.10020710527896881,0.04095209017395973,-0.04445841163396835,-0.7830011248588562,-0.6204294562339783,0.00045182928442955017,-0.0061833858489990234,0.02390235662460327,0.677530804606298,0.3436454153486484,0.2677556879817841,0.5925931866619112
1715269861026046200,2.969046142578125,0.13705310225486755,0.023487940430641174,0.04345699027180672,-0.04478831589221954,-0.7838148474693298,-0.6193773746490479,-0.010067261755466461,-0.013426363468170166,0.04088616371154785,0.6772316856502582,0.344182246912039,0.26804832402604695,0.5924912674327771
1715269861036037000,2.979037109375,0.22238343954086304,-0.08149732649326324,0.01675746962428093,-0.04516039416193962,-0.7851643562316895,-0.6176385879516602,-0.044332630932331085,0.03019005060195923,0.03122812509536743,0.6767814644159166,0.3450288222916378,0.2685811077506466,0.592272007065341
1715269861046027500,2.989027587890625,0.026450468227267265,-0.0626906156539917,-0.04995744302868843,-0.045478273183107376,-0.786108672618866,-0.616412878036499,-0.02530748024582863,0.03369784355163574,0.04013419151306152,0.6767038734908365,0.34575251856698147,0.2687912899812987,0.5918431037572222
1715269861056017400,2.999017333984375,-0.13107125461101532,0.007653317414224148,-0.045233793556690216,-0.04515353590250015,-0.7858853340148926,-0.616721510887146,0.015841171145439148,-0.06059598922729492,0.008292555809020996,0.6769607292372314,0.3455944389828151,0.26870754011130793,0.5916797192678243
1715269861066007300,3.00900732421875,-0.1376975178718567,-0.015671446919441223,-0.04881707951426506,-0.04473738372325897,-0.785178542137146,-0.6176513433456421,0.009199433028697968,-0.05469566583633423,0.03829038143157959,0.6773203958299756,0.34512187185377874,0.2684496858174876,0.5916609643881788
1715269861075997400,3.01899755859375,-0.2216443419456482,0.03208436071872711,-0.05760125070810318,-0.04428759589791298,-0.7843159437179565,-0.6187787055969238,-0.016503646969795227,-0.02443033456802368,0.019459247589111328,0.6777219823347671,0.3445511940365766,0.26813264000900394,0.5916774827480785
1715269861085987300,3.0289873046875,-0.3319878876209259,-0.04132327809929848,-0.21446244418621063,-0.04324475675821304,-0.7827820777893066,-0.6207915544509888,-0.02375682070851326,-0.017800748348236084,0.0066558122634887695,0.6784853511783879,0.3434692407333069,0.26764362267372327,0.5916531404320824
1715269861095977200,3.038977294921875,-0.2707737982273102,-0.11749634146690369,-0.2038542628288269,-0.041860442608594894,-0.7810788750648499,-0.6230276823043823,-0.02845228835940361,-0.007571578025817871,-0.0009499192237854004,0.6798493615371342,0.3424197868947811,0.26689854785006806,0.5910319324096021
1715269861105967400,3.04896728515625,-0.23214440047740936,-0.04039463400840759,-0.026291130110621452,-0.04175600782036781,-0.7798506617546082,-0.6245713233947754,0.01645670458674431,-0.05553746223449707,0.004194736480712891,0.6805824168034523,0.3418894620086822,0.2661313950998692,0.5908411186039761
1715269861115957200,3.058957275390625,-0.09675727039575577,0.04703454673290253,-0.09271515905857086,-0.04157831147313118,-0.7788275480270386,-0.6258584856987,0.05187775939702988,-0.09125906229019165,0.0056345462799072266,0.680959656842756,0.341309470760034,0.2656663167299212,0.5909510755869246
1715269861125947100,3.068947021484375,0.057328008115291595,-0.00927639752626419,-0.0777541920542717,-0.04087110236287117,-0.7788609862327576,-0.6258634924888611,-0.07167796045541763,0.043540000915527344,-0.001440584659576416,0.6811783139896339,0.3411638358897535,0.26584863657655033,0.5907011694919315
1715269861135937300,3.078937255859375,0.05499481409788132,-0.04567967727780342,-0.052818212658166885,-0.040573883801698685,-0.7793923616409302,-0.6252210140228271,-0.09786933660507202,0.07390230894088745,-0.0059740543365478516,0.681273330424162,0.34144945634565865,0.26608602787480196,0.5903194534566906
1715269861145927400,3.088927490234375,0.03699930012226105,-0.014093790203332901,-0.07094435393810272,-0.040260616689920425,-0.779826819896698,-0.6246992349624634,0.008064337074756622,0.03457236289978027,-0.007060408592224121,0.681394248978009,0.3416765577506847,0.2662846271049699,0.5899588846864304
1715269861155917300,3.098917236328125,0.04344308748841286,-0.0013569553848356009,-0.04200191795825958,-0.0399029366672039,-0.780166745185852,-0.624297559261322,0.0349893793463707,0.008697748184204102,0.005965709686279297,0.6814715310978648,0.3418045640873364,0.26649741362272994,0.5896991732375051
1715269861165907500,3.108907470703125,0.04117332771420479,-0.009441247209906578,-0.03551192581653595,-0.03972397372126579,-0.7804734706878662,-0.6239256858825684,-0.01046241819858551,-0.011274516582489014,0.007043361663818359,0.681497722894611,0.3419544208431344,0.2666539585777988,0.5895114663448534
1715269861175897300,3.1188974609375,0.04170942306518555,-0.016658680513501167,-0.044213540852069855,-0.039571087807416916,-0.7807578444480896,-0.6235793828964233,-0.023005440831184387,0.0032309889793395996,0.00483548641204834,0.6815509666740226,0.3421117990946563,0.2667767143692002,0.5893028869710187
1715269861185887200,3.12888720703125,0.015362715348601341,-0.028536377474665642,-0.03736501932144165,-0.03932923451066017,-0.7810340523719788,-0.623248815536499,-0.006569433957338333,0.016797661781311035,0.010577917098999023,0.6816347190404347,0.3422441288392139,0.2669167358998766,0.5890658593571249
1715269861195876400,3.13887646484375,-0.005434973631054163,-0.031508464366197586,-0.03175986558198929,-0.039102330803871155,-0.7811842560768127,-0.6230747103691101,0.00641777366399765,0.0028792619705200195,0.018277406692504883,0.6817657456348494,0.3423192602569721,0.2669834482377342,0.5888401815618564
1715269861205866200,3.1488662109375,0.010872839018702507,-0.03685050085186958,-0.03392314910888672,-0.03930956497788429,-0.7811340093612671,-0.6231245994567871,0.008822277188301086,-0.006799221038818359,0.027162134647369385,0.6818838616264513,0.3424169088469904,0.2668114781878329,0.588724501749177
1715269861215857200,3.158857177734375,0.033841006457805634,-0.06090310588479042,-0.031430963426828384,-0.039754509925842285,-0.7811562418937683,-0.623068630695343,0.0043386295437812805,0.0021492838859558105,0.024969935417175293,0.6819766008226898,0.3426407733418027,0.26657639664772004,0.5885934624005313
1715269861225847300,3.168847412109375,0.03317638486623764,-0.07350091636180878,-0.029237251728773117,-0.03989658132195473,-0.7812901139259338,-0.6228916645050049,0.007150985300540924,0.009866774082183838,0.021283388137817383,0.6821320916951157,0.3428545348144039,0.26646753593086164,0.5883379894919201
1715269861235837200,3.178837158203125,0.03604647517204285,-0.06857460737228394,-0.021056553348898888,-0.03998338058590889,-0.7815037369728088,-0.6226179599761963,0.014043211936950684,0.010217785835266113,0.023023903369903564,0.6822710514518455,0.34309376914615897,0.26641636328803703,0.5880604112907845
1715269861245827300,3.188827392578125,0.04383808374404907,-0.0681018978357315,-0.025699442252516747,-0.04027114436030388,-0.7817908525466919,-0.6222389340400696,0.013049233704805374,-0.0003135800361633301,0.02250748872756958,0.6823472191207051,0.3434294693524243,0.26633952924069976,0.5878109706846596
1715269861255817500,3.1988173828125,0.05171811208128929,-0.0742868185043335,-0.02470741607248783,-0.04062443599104881,-0.7820754647254944,-0.6218581199645996,0.00484234094619751,-0.00504910945892334,0.01535177230834961,0.6824233872371317,0.34378840731753957,0.26623389234772854,0.5875603938127253
1715269861265807400,3.208807373046875,0.07181672006845474,-0.07892844080924988,-0.0239565372467041,-0.040941692888736725,-0.7824603915214539,-0.6213528513908386,0.0018179304897785187,-0.0008494257926940918,0.010421514511108398,0.6824860535445764,0.3441955141946264,0.26618232115382323,0.5872725236599885
1715269861275797200,3.21879736328125,0.0683402344584465,-0.08124460279941559,-0.023012712597846985,-0.041213084012269974,-0.7829456329345703,-0.6207234263420105,0.004835903644561768,0.004610121250152588,0.006175637245178223,0.6825364649452715,0.34464786296643746,0.26618818916506937,0.5869460116131117
1715269861285787400,3.228787353515625,0.054758697748184204,-0.07318480312824249,-0.022096918895840645,-0.04141886159777641,-0.7834481596946716,-0.6200752854347229,0.006674367934465408,0.0012063980102539062,-0.0004843473434448242,0.682587295465996,0.3450880101134763,0.26622661517787527,0.5866107487640769
1715269861295777300,3.23877734375,0.03407685458660126,-0.06536470353603363,-0.023280426859855652,-0.04159364104270935,-0.7838625907897949,-0.6195396780967712,0.006040435284376144,-0.0020107626914978027,0.0020317435264587402,0.682644279022703,0.34546012715826685,0.26624701814954876,0.5863160698225734
1715269861305767400,3.248767333984375,0.01221933402121067,-0.06569387018680573,-0.019949477165937424,-0.041709523648023605,-0.7840571999549866,-0.6192855834960938,0.0028146393597126007,-0.008072257041931152,0.00382232666015625,0.6827667434423655,0.3456911321965367,0.26618574186951544,0.5860651775965636
1715269861315757300,3.25875732421875,0.014592209830880165,-0.06460995972156525,-0.02083311416208744,-0.04172684624791145,-0.7842188477516174,-0.6190796494483948,0.0002074502408504486,-0.005865931510925293,0.009094297885894775,0.6829094465588895,0.3458721505103172,0.2661440021948128,0.5858109018996043
1715269861325747200,3.268747314453125,0.014695114456117153,-0.06259635090827942,-0.019202327355742455,-0.04174499958753586,-0.7844541668891907,-0.618780255317688,0.0021329522132873535,-0.004593014717102051,0.012670636177062988,0.6830242523508243,0.34609081389342267,0.26614096271061505,0.5855492968476086
1715269861335737300,3.2787373046875,0.0043268958106637,-0.059899892657995224,-0.020473720505833626,-0.04188159480690956,-0.7846197485923767,-0.6185610890388489,0.004939839243888855,-0.0031304359436035156,0.006439507007598877,0.6831352938471384,0.3463050338637758,0.2660682103536147,0.5853261218599929
1715269861345727200,3.288727294921875,0.008600523695349693,-0.04892687126994133,-0.019345605745911598,-0.04201982170343399,-0.7847241163253784,-0.6184192299842834,0.006176695227622986,-0.0018816590309143066,0.005336403846740723,0.6832470079154028,0.34647863405948326,0.26597542752371756,0.5851351474862485
1715269861355717400,3.29871728515625,0.01791279949247837,-0.04521389305591583,-0.021919818595051765,-0.0420713908970356,-0.7848165035247803,-0.6182985305786133,0.005175407975912094,-0.0014993548393249512,0.006329536437988281,0.6833614622048639,0.34661282198947,0.2659140772488454,0.5849498790560147
1715269861365707500,3.30870751953125,0.020396515727043152,-0.04248228669166565,-0.028950229287147522,-0.04204545542597771,-0.7849160432815552,-0.6181738972663879,0.003211602568626404,-0.004787266254425049,0.0024054646492004395,0.6834851525530479,0.34672703315158326,0.26588233455074356,0.5847520833967431
1715269861375697400,3.318697509765625,0.028405440971255302,-0.03502463921904564,-0.02749720960855484,-0.04196151718497276,-0.7850960493087769,-0.6179510354995728,0.003463365137577057,-0.0009909272193908691,0.002075791358947754,0.6835882873463849,0.34686493788089523,0.2659120360577577,0.5845361996678344
1715269861385687300,3.328687255859375,0.03905206918716431,-0.033977750688791275,-0.032545361667871475,-0.0418868251144886,-0.7853732705116272,-0.6176035404205322,0.000779416412115097,0.006793677806854248,0.003620445728302002,0.6836530390975805,0.3470553408214223,0.265990274320666,0.5843116284307646
1715269861395677400,3.338677490234375,0.036747898906469345,-0.03425205498933792,-0.033805038779973984,-0.04183795675635338,-0.7856954336166382,-0.6171970367431641,-0.002000778913497925,0.006917357444763184,0.003015577793121338,0.6837072621591583,0.34728124997408616,0.26607743582223103,0.5840743003262834
1715269861405668400,3.34866845703125,0.014522168785333633,-0.026570964604616165,-0.03663910925388336,-0.04171720892190933,-0.7859606146812439,-0.6168674826622009,-0.0008855611085891724,0.002604961395263672,0.002808094024658203,0.6837885625251239,0.3474539786588398,0.26616157318573536,0.5838380255232017
1715269861415658200,3.358658203125,-0.025226041674613953,-0.02304227650165558,-0.0398775115609169,-0.04150017723441124,-0.786003828048706,-0.616827130317688,-0.00027861446142196655,-0.00202101469039917,0.0030729174613952637,0.683936021065656,0.34746934483137726,0.26617943680286665,0.5836480145389094
1715269861425648000,3.368648193359375,-0.07482102513313293,-0.021619616076350212,-0.037797119468450546,-0.04126661270856857,-0.7857452034950256,-0.6171722412109375,-0.004418432712554932,-0.01093137264251709,0.00830078125,0.6841672675161189,0.34731068810896437,0.2660623275440627,0.5835249230105
1715269861435638500,3.378638427734375,-0.10856647044420242,-0.01823420636355877,-0.04052605852484703,-0.04103972762823105,-0.7852211594581604,-0.6178537607192993,-0.0037603043019771576,-0.01836758852005005,0.016031920909881592,0.6844657821999547,0.3470044594832592,0.26582139344069766,0.5834666010450507
1715269861445628400,3.38862841796875,-0.1117188036441803,-0.010864706709980965,-0.036559149622917175,-0.04079907760024071,-0.7845726013183594,-0.6186931133270264,-0.0007813535630702972,-0.01892465353012085,0.014673948287963867,0.6847930313143433,0.34662147524977777,0.26553150821585897,0.5834424007936666
1715269861455618300,3.398618408203125,-0.07865805178880692,-0.014546260237693787,-0.03825931251049042,-0.04054305702447891,-0.7840074300765991,-0.6194259524345398,-0.0029599815607070923,-0.016041338443756104,0.012080371379852295,0.6850892106199621,0.3462759736544341,0.2652922591584168,0.5834086323069267
1715269861465608400,3.4086083984375,-0.03679145872592926,-0.013403497636318207,-0.03600674122571945,-0.04035622999072075,-0.7836722135543823,-0.6198621988296509,-0.006015460938215256,-0.0077095627784729,0.010395646095275879,0.6853135396287416,0.3460802627874758,0.26513647800512713,0.5833321187655749
1715269861475598300,3.418598388671875,-0.0005197376012802124,-0.011596010997891426,-0.04118499159812927,-0.0401902012526989,-0.7835870385169983,-0.6199806928634644,-0.008683927357196808,0.005388855934143066,0.00850003957748413,0.6854571302728653,0.3460256561590808,0.2650960310001195,0.5832141689905983
1715269861485588200,3.428588134765625,0.010841626673936844,-0.016997167840600014,-0.03729511424899101,-0.040034957230091095,-0.7836800813674927,-0.6198731064796448,-0.00801520049571991,0.014316737651824951,0.00785839557647705,0.6855547812172091,0.34607538618329736,0.26513255532215346,0.5830532218239414
1715269861495578400,3.438578369140625,0.011505020782351494,-0.020363137125968933,-0.03241300582885742,-0.03990810364484787,-0.7838165760040283,-0.6197086572647095,-0.007867392152547836,0.012668013572692871,0.007770240306854248,0.6856415324806483,0.34616035004339085,0.26517668258555294,0.5828807324992916
1715269861505568300,3.448568359375,-0.008880091831088066,-0.019571645185351372,-0.02567148022353649,-0.03987327963113785,-0.7839695811271667,-0.6195173263549805,-0.004285886883735657,0.0046880245208740234,0.007853507995605469,0.685703845589063,0.3462798474497448,0.2652010731157986,0.5827253239588385
1715269861515558100,3.45855810546875,-0.011182395741343498,-0.02653714269399643,-0.02169085294008255,-0.03988487645983696,-0.7841203808784485,-0.6193258166313171,-0.0003832988440990448,-0.0014936327934265137,0.010820627212524414,0.6857576629002263,0.346411231046139,0.2652099990489532,0.5825799207117393
1715269861525548300,3.46854833984375,-0.0022490876726806164,-0.03708991780877113,-0.019435953348875046,-0.03992101550102234,-0.7842817902565002,-0.6191190481185913,0.0023689046502113342,0.0037490129470825195,0.01795327663421631,0.685812241814206,0.346559504927817,0.2652112008701016,0.5824269531617303
1715269861535538400,3.478538330078125,0.0005855807103216648,-0.05128776282072067,-0.007169433869421482,-0.04012414440512657,-0.7844299077987671,-0.618918240070343,0.005516979843378067,0.00762021541595459,0.016180872917175293,0.6858661464025514,0.3467607111178908,0.26513746376947256,0.5822772779901683
1715269861545528300,3.4885283203125,0.007083214819431305,-0.06305307149887085,-0.0026139637921005487,-0.04050109535455704,-0.7845548987388611,-0.618735134601593,0.011295542120933533,0.006616115570068359,0.012274563312530518,0.6859157248098726,0.347009191156278,0.26498502485659303,0.5821400367764826
1715269861555518500,3.4985185546875,0.012600485235452652,-0.06873306632041931,0.005484442692250013,-0.041021108627319336,-0.7846293449401855,-0.6186065077781677,0.01678992062807083,0.009788095951080322,0.0107421875,0.6859623577080279,0.347275111832665,0.2647578861424723,0.5820298997473397
1715269861565508400,3.50850830078125,0.014432793483138084,-0.08404438197612762,0.012865260243415833,-0.04165729880332947,-0.7846652269363403,-0.6185184121131897,0.01644955202937126,0.012906312942504883,0.004321694374084473,0.6860130677177709,0.3475601076896285,0.2644669502916354,0.5819322429138926
1715269861575498200,3.518498291015625,0.01573001965880394,-0.08647504448890686,0.0195804201066494,-0.0424034558236599,-0.7847188115119934,-0.6183997392654419,0.01249600201845169,0.011006712913513184,0.0017005205154418945,0.6860500664536122,0.34789204467676194,0.2641424887768299,0.581837679450858
1715269861585488400,3.52848828125,0.010418557561933994,-0.08094099164009094,0.01775548979640007,-0.04309849068522453,-0.7848086357116699,-0.6182377338409424,0.013450432568788528,0.005466043949127197,0.0006840229034423828,0.686073740865098,0.3482236950110071,0.2638586510865351,0.5817402428695928
1715269861595479300,3.538479248046875,0.016185367479920387,-0.06939911842346191,0.01878080703318119,-0.04368454962968826,-0.784932553768158,-0.6180392503738403,0.014478996396064758,0.0005393028259277344,-0.008257687091827393,0.6860880125112252,0.3485338169970713,0.2636371407013946,0.5816381249729026
1715269861605469200,3.54846923828125,0.03727786988019943,-0.05422656238079071,0.014081859029829502,-0.04414048790931702,-0.7851812839508057,-0.6176907420158386,0.008953489363193512,0.0010322332382202148,-0.015289545059204102,0.6860613222888335,0.34886218922064327,0.2635332860820469,0.5815197110264533
1715269861615459300,3.558459228515625,0.028851626440882683,-0.04928533360362053,0.0025333273224532604,-0.04441547766327858,-0.785446047782898,-0.6173343658447266,0.002285730093717575,0.0019835829734802246,-0.019857406616210938,0.686050158672933,0.34914096370907693,0.2635021977739242,0.5813796862615015
1715269861625449500,3.568449462890625,0.012517660856246948,-0.03977784886956215,-0.0019673483911901712,-0.044511791318655014,-0.7856175899505615,-0.6171090006828308,-0.0013563521206378937,-0.0038415193557739258,-0.02537745237350464,0.686095106110612,0.3493147787533908,0.2634856208747195,0.5812296069191015
1715269861635439400,3.578439453125,-0.009117593057453632,-0.026754990220069885,-0.013573138043284416,-0.04441908001899719,-0.7856417298316956,-0.6170849800109863,-0.0004114694893360138,-0.005892634391784668,-0.01784837245941162,0.6861855681106785,0.34933761235604677,0.2634781378265763,0.5811124494078825
1715269861645429200,3.58842919921875,-0.023002570495009422,-0.014888742938637733,-0.012099876999855042,-0.04421249032020569,-0.7855067849159241,-0.6172716021537781,-0.003166280686855316,-0.013244986534118652,-0.015037357807159424,0.6863253742772406,0.34923140585227863,0.2634418975088557,0.5810276546390977
1715269861655419400,3.59841943359375,-0.03953547403216362,-0.0013939733617007732,-0.016229107975959778,-0.04399006441235542,-0.7852743268013,-0.6175832152366638,-0.007920563220977783,-0.02100008726119995,-0.017197608947753906,0.6864631760986285,0.349051678859049,0.26338432645686966,0.580998994142599
1715269861665409300,3.6084091796875,-0.033394329249858856,0.013360471464693546,-0.019106654450297356,-0.04364541918039322,-0.7850346565246582,-0.617912232875824,-0.007059767842292786,-0.01931709051132202,-0.01848602294921875,0.6866103048498549,0.34882578227015204,0.2633713017205825,0.5809666853578985
1715269861675399400,3.6183994140625,-0.012852303683757782,0.025936184450984,-0.02411765791475773,-0.04317012429237366,-0.7848537564277649,-0.6181754469871521,-0.004315458238124847,-0.016049563884735107,-0.020633697509765625,0.6867275349851814,0.34857779351971824,0.2634497869945272,0.5809414404999413
1715269861685389300,3.628389404296875,0.0020919712260365486,0.02772636152803898,-0.02059948816895485,-0.04272948578000069,-0.7847548723220825,-0.6183315515518188,-0.006220940500497818,-0.011677563190460205,-0.020630240440368652,0.6867985998791745,0.3483780781200474,0.26356583603656597,0.5809245832444225
1715269861695379200,3.638379150390625,0.00021657301113009453,0.028840361163020134,-0.019805334508419037,-0.04239809885621071,-0.7846661806106567,-0.6184669733047485,-0.0053011029958724976,-0.011567950248718262,-0.016542792320251465,0.686844509293599,0.34821466585338345,0.26365329350164435,0.5809286254119482
1715269861705369300,3.648369384765625,-0.00762526411563158,0.031123755499720573,-0.024025380611419678,-0.04206232354044914,-0.7845338582992554,-0.6186577081680298,0.0004513747990131378,-0.012356340885162354,-0.011789679527282715,0.6869047374975026,0.34802645690842055,0.26372093758770965,0.580939519478507
1715269861715359200,3.658359130859375,-0.01722462847828865,0.03375682234764099,-0.02560623176395893,-0.04169478639960289,-0.7844210863113403,-0.6188254952430725,0.004508890211582184,-0.015749752521514893,-0.005487799644470215,0.6869662113387328,0.34784045072731884,0.26380725398784277,0.5809389397725161
1715269861725349400,3.668349365234375,-0.008759452030062675,0.03475364297628403,-0.03024405986070633,-0.04130367934703827,-0.7843258380889893,-0.6189724802970886,0.006513409316539764,-0.022619903087615967,-0.001678764820098877,0.6870281537923882,0.3476578569874777,0.26390866858581413,0.580928980363804
1715269861735339500,3.678339599609375,0.021084997802972794,0.03470757231116295,-0.038218095898628235,-0.04088376462459564,-0.7843860387802124,-0.6189240217208862,0.005620475858449936,-0.019767343997955322,0.00004285573959350586,0.6870598215334676,0.3475570241921973,0.2640873106243616,0.5808706151656018
1715269861745329400,3.688329345703125,0.027706414461135864,0.03603702038526535,-0.04330160841345787,-0.04039817303419113,-0.7845582365989685,-0.6187376976013184,0.002250969409942627,-0.011202812194824219,0.0002837181091308594,0.6870826432985524,0.34750419625529333,0.2643330920490987,0.58076353576305
1715269861755319300,3.6983193359375,0.032695312052965164,0.03430383652448654,-0.03950100764632225,-0.03990132734179497,-0.7847462892532349,-0.6185314059257507,-0.0003973618149757385,-0.004239857196807861,-0.00010567903518676758,0.687104244450158,0.34745769778198216,0.2645891908592342,0.5806491601066258
1715269861765309400,3.708309326171875,0.03844806179404259,0.038116950541734695,-0.044168464839458466,-0.0393790565431118,-0.7849410176277161,-0.6183178424835205,-0.0013621412217617035,-0.0000015497207641601562,0.003815889358520508,0.6871272122601805,0.347407043578316,0.2648573714511766,0.5805300702973528
1715269861775300400,3.71830029296875,0.0345422700047493,0.03219914063811302,-0.03804212808609009,-0.038904838263988495,-0.7851510047912598,-0.6180810332298279,-0.0022636018693447113,0.0006052255630493164,0.008248388767242432,0.6871359538674625,0.347378564584749,0.2651181238721264,0.5804175482332403
1715269861785290200,3.728290283203125,0.03889898955821991,0.026684265583753586,-0.03799665719270706,-0.038445889949798584,-0.7853875160217285,-0.6178092360496521,-0.004080586135387421,0.001696169376373291,0.010433197021484375,0.6871427165600394,0.34737300045338265,0.26538156167898597,0.5802925134360364
1715269861795280100,3.738280029296875,0.05723618343472481,0.014817753806710243,-0.0331084243953228,-0.038004279136657715,-0.7857188582420349,-0.6174151301383972,-0.00264536589384079,0.0076732635498046875,0.016218900680541992,0.687129477367724,0.34742991245002086,0.265678153855802,0.5801383916723076
1715269861805270500,3.7482705078125,0.07195813953876495,0.009955886751413345,-0.02315971814095974,-0.037673529237508774,-0.7862098217010498,-0.616810142993927,-0.0016180835664272308,0.01205521821975708,0.018162071704864502,0.6870633966036495,0.3476135096198704,0.2660071176349679,0.5799559368541397
1715269861815260400,3.758260498046875,0.08435142040252686,0.00004892726428806782,-0.018030203878879547,-0.037447307258844376,-0.7867786884307861,-0.6160982847213745,-0.000608351081609726,0.017201602458953857,0.016076862812042236,0.6869654898678492,0.3478751281358973,0.2663339261858068,0.5797651303479866
1715269861825250300,3.768250244140625,0.08054853975772858,-0.007561321370303631,-0.00732442969456315,-0.037384048104286194,-0.7873155474662781,-0.6154157519340515,0.0001523718237876892,0.02169060707092285,0.016019999980926514,0.6868562899913152,0.3481707705827233,0.26658815368289085,0.5795999881498703
1715269861835240400,3.778240478515625,0.07048791646957397,-0.013975812122225761,0.0013034130679443479,-0.03745146095752716,-0.7877767086029053,-0.6148212552070618,0.001593075692653656,0.01824551820755005,0.016600430011749268,0.6867430391116001,0.34846119483322524,0.26676614716827085,0.5794777938923948
1715269861845230300,3.788230224609375,0.06377759575843811,-0.02402604930102825,0.0059753297828137875,-0.03763526678085327,-0.7881774306297302,-0.6142963171005249,0.0013038590550422668,0.017822265625,0.018242239952087402,0.6866311370656711,0.34875407870075525,0.2668753306584306,0.5793840322422404
1715269861855220200,3.79822021484375,0.06614168733358383,-0.036557286977767944,0.013219127431511879,-0.03795557841658592,-0.7885751724243164,-0.6137658357620239,-0.0011224113404750824,0.01904398202896118,0.019909024238586426,0.6865161409483894,0.34909462080426074,0.26692701131778046,0.5792913421049036
1715269861865210400,3.80821044921875,0.06518923491239548,-0.04067692905664444,0.020063718780875206,-0.03838222101330757,-0.7889887094497681,-0.6132076978683472,0.00017398223280906677,0.017962157726287842,0.019976496696472168,0.686389833689133,0.34948060371687356,0.266944698037921,0.5792002047079279
1715269861875200300,3.8182001953125,0.05556723475456238,-0.04514038935303688,0.025822538882493973,-0.038829486817121506,-0.7893741130828857,-0.612683117389679,-0.0009198896586894989,0.014136135578155518,0.01778876781463623,0.6862687918954535,0.3498577889940468,0.2669418616414777,0.579117053277301
1715269861885190100,3.828190185546875,0.06564027070999146,-0.04632789269089699,0.02592853270471096,-0.03932732343673706,-0.7897366881370544,-0.6121839880943298,-0.004389338195323944,0.011370658874511719,0.018281400203704834,0.6861471421655145,0.35023794013354004,0.2669108548800238,0.5790457247994243
1715269861895180300,3.83818017578125,0.08261605352163315,-0.04876495152711868,0.023969510570168495,-0.03983359411358833,-0.790160059928894,-0.6116047501564026,-0.0042340196669101715,0.011687159538269043,0.017183423042297363,0.6860089420440034,0.3506560089702446,0.2669044416123595,0.5789595076083981
1715269861905170200,3.848170166015625,0.08904466032981873,-0.051611870527267456,0.025849901139736176,-0.040338024497032166,-0.7906543612480164,-0.6109323501586914,-0.005530122667551041,0.010365784168243408,0.013917028903961182,0.6858576849226775,0.35111721572064847,0.2669279189915447,0.5788482252210033
1715269861915160300,3.858160400390625,0.08343950659036636,-0.052514415234327316,0.026265621185302734,-0.040836479514837265,-0.7911615371704102,-0.6102424263954163,-0.008922658860683441,0.011971473693847656,0.012082695960998535,0.6857039620318722,0.35158431350715147,0.2669592732705984,0.5787325073158646
1715269861925150500,3.868150390625,0.07333297282457352,-0.05392269417643547,0.0273592472076416,-0.04134190455079079,-0.791632354259491,-0.6095975041389465,-0.008920777589082718,0.015341460704803467,0.01667153835296631,0.6855662541971728,0.3520367609060782,0.2669669597507585,0.5786171009885284
1715269861935140400,3.878140380859375,0.038055937737226486,-0.05736749246716499,0.024857208132743835,-0.04187403619289398,-0.791969358921051,-0.6091232299804688,-0.006099827587604523,0.0104142427444458,0.01895904541015625,0.685471900125011,0.35242661009385395,0.26689673469406244,0.5785239369898818
1715269861945130200,3.888130126953125,-0.00737870903685689,-0.055572256445884705,0.02725292183458805,-0.04241074249148369,-0.7920544147491455,-0.6089754104614258,-0.0017026476562023163,-0.0020891427993774414,0.019330084323883057,0.6854463447747856,0.3526748189885361,0.26670729381393576,0.5784901531236367
1715269861955120400,3.898120361328125,-0.0604533776640892,-0.05344013124704361,0.03073900006711483,-0.04297114163637161,-0.79183429479599,-0.6092223525047302,0.0003378540277481079,-0.009999752044677734,0.019088685512542725,0.6854963764495903,0.35275424567245217,0.26637054850427444,0.5785376623826182
1715269861965111300,3.908111328125,-0.11176711320877075,-0.05018335208296776,0.03118414804339409,-0.0435350202023983,-0.7912861108779907,-0.6098940968513489,0.0007338933646678925,-0.011341333389282227,0.018539845943450928,0.6856270947152883,0.3526442253095957,0.2658852971542152,0.578672951793417
1715269861975101200,3.91810107421875,-0.1614566445350647,-0.04219226911664009,0.029392370954155922,-0.04406522586941719,-0.7904508709907532,-0.610938310623169,-0.003603462129831314,-0.007232785224914551,0.018302202224731445,0.6858333587830883,0.35235744946387104,0.2652830181392788,0.5788796477416803
1715269861985091300,3.92809130859375,-0.2052154541015625,-0.03327680379152298,0.032808076590299606,-0.0445740669965744,-0.7893333435058594,-0.6123446226119995,-0.006314221769571304,-0.00688546895980835,0.016855180263519287,0.6861068178473937,0.35189916131606164,0.26456505263217245,0.579162844582262
1715269861995081500,3.93808154296875,-0.22774766385555267,-0.024452686309814453,0.03240806981921196,-0.04507264122366905,-0.7880110144615173,-0.614008903503418,-0.006029266864061356,-0.005354344844818115,0.01627647876739502,0.6864172145131118,0.3513144470574205,0.26376825789984204,0.5795132970573834
1715269862005071400,3.9480712890625,0.02189507707953453,-0.47410160303115845,0.020792892202734947,-0.046171776950359344,-0.7870199680328369,-0.6151973009109497,-0.006806965917348862,-0.0008370280265808105,0.014184117317199707,0.686789067158678,0.3512123535060487,0.2627760268206915,0.5795855113732947
1715269862015061500,3.9580615234375,-0.05333789065480232,-0.11898878216743469,-0.02468431182205677,-0.04858483374118805,-0.7879509329795837,-0.6138182282447815,-0.005721427500247955,0.003969669342041016,0.009341299533843994,0.6869306426970402,0.3528214354079578,0.2619311539818601,0.5788224097474708
1715269862025051400,3.968051513671875,-0.2866620123386383,-0.1323687583208084,-0.06180012226104736,-0.04920591041445732,-0.7867103815078735,-0.6153581142425537,0.004833124577999115,-0.016054511070251465,0.07202315330505371,0.6878279333892391,0.35260486337319624,0.2607503844092651,0.5784218390857497
1715269862035041300,3.978041259765625,0.12091295421123505,-0.15604400634765625,0.00731609808281064,-0.04976639151573181,-0.7863649129867554,-0.6157544255256653,0.030036550015211105,-0.09028297662734985,0.04617434740066528,0.6881464778083031,0.3527206146739459,0.2602132927465102,0.5782141689998239
1715269862045031400,3.988031494140625,0.1813092976808548,-0.16582685708999634,-0.04924464970827103,-0.05052473023533821,-0.7875681519508362,-0.614152729511261,0.059099942445755005,0.04661667346954346,0.05327022075653076,0.6881040854994492,0.35381446463285937,0.26026709440554185,0.5775716857488127
1715269862055021300,3.998021240234375,0.1639729142189026,-0.07587593793869019,-0.01959141716361046,-0.05090147256851196,-0.7887206077575684,-0.6126407980918884,-0.04202478006482124,0.051415979862213135,0.016373157501220703,0.688046146825812,0.3547260400825245,0.260478465653731,0.5769859500205814
1715269862065011200,4.00801123046875,0.09194425493478775,-0.0930783599615097,-0.016761140897870064,-0.051275186240673065,-0.7895923852920532,-0.6114856004714966,-0.07218390703201294,0.005290687084197998,0.023564457893371582,0.6879378576446604,0.35542148053488953,0.2606391716719211,0.5766144054905686
1715269862075001300,4.01800146484375,0.01378127746284008,-0.06637217104434967,-0.04819682985544205,-0.05149007961153984,-0.7899804711341858,-0.6109660267829895,0.0025243982672691345,-0.0009435415267944336,0.03509938716888428,0.6880434520435592,0.3558192942963526,0.2605947088496398,0.5762630835946069
1715269862084991200,4.0279912109375,-0.07184089720249176,-0.02088005654513836,-0.042285945266485214,-0.05136317014694214,-0.7898567318916321,-0.6111367344856262,0.026353787630796432,-0.054717183113098145,0.022422194480895996,0.6882768395421378,0.3557912260235429,0.26046924026994395,0.5760584196961548
1715269862094981400,4.0379814453125,-0.1665319800376892,0.015535475686192513,-0.05415378883481026,-0.051018960773944855,-0.7891468405723572,-0.6120818257331848,-0.01753900945186615,-0.05844831466674805,0.01863706111907959,0.6886237683312076,0.3553262988744948,0.26019666304267186,0.576053861032676
1715269862104971500,4.047971435546875,-0.2311679720878601,0.06256210803985596,-0.06604433059692383,-0.05027322843670845,-0.7880988717079163,-0.6134923100471497,-0.033863961696624756,-0.045015692710876465,-0.0007807612419128418,0.6890741914772714,0.35452439551857984,0.2599352030608909,0.5761275019020732
1715269862114961400,4.05796142578125,-0.26750895380973816,0.1221599280834198,-0.07848715782165527,-0.04902157559990883,-0.7868173718452454,-0.6152359247207642,-0.009038344025611877,-0.04460346698760986,-0.01653897762298584,0.6895705519509658,0.35339531136766955,0.2597956718496926,0.5762901392770601
1715269862124951300,4.067951416015625,-0.293948233127594,0.18047888576984406,-0.10062628239393234,-0.04721669852733612,-0.7851750254631042,-0.6174712777137756,-0.008020345121622086,-0.029674768447875977,-0.03624570369720459,0.6901578155862743,0.3518564800247436,0.2597332566254666,0.576556916522473
1715269862134942200,4.077942138671875,-0.32076892256736755,0.25725701451301575,-0.09317103028297424,-0.04496672376990318,-0.7832377552986145,-0.6200940608978271,-0.02211114391684532,-0.018840491771697998,-0.04877495765686035,0.6906490165671894,0.3499135764678649,0.2598335180767777,0.5771057169728476
