time,seconds_elapsed,rotationRateX,rotationRateY,rotationRateZ,gravityX,gravityY,gravityZ,accelerationX,accelerationY,accelerationZ,quaternionW,quaternionX,quaternionY,quaternionZ
1715270023537791000,0.047791015625,0.029689565300941467,-0.005689119920134544,0.003802656661719084,-0.2956148684024811,-0.5474821329116821,-0.7828633785247803,0.0026766955852508545,-0.004290878772735596,-0.015384852886199951,0.944156532719669,0.28993186966279455,-0.15654971304685747,5.551115123125783e-17
1715270023547782000,0.057781982421875,0.016572430729866028,0.002540314570069313,-0.004585768096148968,-0.2956637740135193,-0.5478368997573853,-0.7825967073440552,0.003763139247894287,-0.003936171531677246,-0.013652682304382324,0.9440859452515672,0.2901410955840809,-0.15658793016064812,-0.00000199682457591166
1715270023557772000,0.06777197265625,0.0008278223685920238,0.0025472387205809355,-0.007827900350093842,-0.29571595788002014,-0.548082709312439,-0.782404899597168,0.0033728480339050293,0.0009330511093139648,-0.008351325988769531,0.944035171416867,0.290284767444693,-0.15662792844106999,-0.00001480093032152352
1715270023567762200,0.07776220703125,-0.005902305711060762,0.003292923793196678,-0.004212526138871908,-0.2958555221557617,-0.5481016635894775,-0.7823388576507568,0.0026274025440216064,0.002233743667602539,-0.003229379653930664,0.944017717385095,0.2902989653751865,-0.15670701149908822,-0.000022148407956446015
1715270023577752000,0.087751953125,0.000613383948802948,0.00230968464165926,-0.003234347328543663,-0.2958701252937317,-0.5479711890220642,-0.7824247479438782,0.004091590642929077,0.005109250545501709,0.00039649009704589844,0.9440404258986557,0.29022242965888356,-0.15671176709692683,-0.000024733618837424753
1715270023587743000,0.097742919921875,0.01311090774834156,0.003244720632210374,-0.006196980830281973,-0.29576820135116577,-0.5478751063346863,-0.7825304865837097,0.003501385450363159,0.012245893478393555,0.002409636974334717,0.9440684138308121,0.2901615763499791,-0.156655705075445,-0.00003308907159310648
1715270023597733000,0.107733154296875,0.020644988864660263,0.003753917058929801,-0.004905880428850651,-0.29562923312187195,-0.5479570031166077,-0.7825256586074829,0.002568960189819336,0.013762116432189941,0.00438845157623291,0.9440670949972514,0.29020216919302,-0.15658823716312928,-0.00005234715310925564
1715270023609458400,0.11945849609375,0.022367840632796288,0.00333473552018404,-0.004497883841395378,-0.2954983115196228,-0.5481027364730835,-0.7824730277061462,0.003796130418777466,0.007392406463623047,0.00812000036239624,0.9440531297529853,0.2902818313892691,-0.15652459917892894,-0.0000633203556366646
1715270023619448300,0.1294482421875,0.02659587562084198,0.0010806359350681305,-0.007083547301590443,-0.29533231258392334,-0.5482437610626221,-0.7824370265007019,0.0037215352058410645,0.00783836841583252,0.00994563102722168,0.9440438138991756,0.2903698710725926,-0.15641875559427454,0
1715270023629438500,0.1394384765625,0.021702425554394722,-0.0018070298247039318,-0.008502146229147911,-0.295179158449173,-0.5484148859977722,-0.7823748588562012,0.001294851303100586,0.009718477725982666,0.008662819862365723,0.9440272331182774,0.29046134596141676,-0.1563482749199666,-0.000025641516553043253
1715270023639429600,0.1494296875,0.00700497068464756,-0.0001651907805353403,-0.013459354639053345,-0.29506024718284607,-0.5484867095947266,-0.7823693752288818,-0.0007008910179138184,0.008233904838562012,0.004278004169464111,0.9440258906848171,0.29049305664145186,-0.15629809543899778,-0.00006650843413052998
1715270023649419500,0.15941943359375,-0.005328606814146042,0.0007586597930639982,-0.011078622192144394,-0.29497477412223816,-0.5484873056411743,-0.7824012041091919,-0.002419114112854004,0.002008974552154541,0.00459975004196167,0.9440343032335501,0.2904809474832486,-0.15626972347484022,-0.00012598882523812138
1715270023659409400,0.169409423828125,-0.008097762241959572,-0.0036227726377546787,-0.012372652068734169,-0.2948930263519287,-0.5483871102333069,-0.7825022339820862,-0.0016463100910186768,-0.001234591007232666,0.0025493502616882324,0.9440610301071486,0.29040881938718544,-0.15624210228453717,-0.00019131814324618857
1715270023669399600,0.179399658203125,-0.007495887577533722,-0.003374033607542515,-0.009988389909267426,-0.294849693775177,-0.5482653975486755,-0.7826038002967834,-0.0029713809490203857,0.0013446211814880371,-0.001529991626739502,0.9440879199350287,0.2903259759650833,-0.15623353184854527,-0.00025261300403234266
1715270023679390500,0.189390380859375,-0.012272000312805176,-0.004086429253220558,-0.01068134419620037,-0.2948422133922577,-0.5480893850326538,-0.782729983329773,-0.0025973916053771973,0.003243684768676758,-0.006134152412414551,0.9441213085990827,0.2902134937997112,-0.15624067452625287,-0.0003067989166551377
1715270023689379800,0.1993798828125,-0.0071725803427398205,0.002091039204970002,-0.008877052925527096,-0.29480570554733276,-0.5480162501335144,-0.7827948927879333,0.0008145570755004883,0.0010800957679748535,-0.004726409912109375,0.9441384305854662,0.2901609254949422,-0.15623443933032433,-0.00035873745610282004
1715270023699370000,0.209369873046875,0.007120072841644287,-0.002030469011515379,-0.00857505016028881,-0.2947787046432495,-0.5480292439460754,-0.7827959656715393,0.0011996030807495117,-0.005941212177276611,-0.005732357501983643,0.9441386873647641,0.2901616339584874,-0.15623139731798574,-0.0003954606163485974
1715270023709359900,0.21935986328125,0.012810875661671162,-0.002256304956972599,-0.00458383746445179,-0.2948116660118103,-0.5481034517288208,-0.7827315330505371,0.0024989843368530273,-0.00035858154296875,-0.00540006160736084,0.9441216088974218,0.2902042837734118,-0.1562552250480041,-0.00040695644745014636
1715270023719349800,0.229349853515625,0.010490196757018566,-0.00007517589256167412,-0.006787603255361319,-0.29482752084732056,-0.5481569766998291,-0.7826880812644958,0.002926856279373169,0.006988704204559326,-0.0026816725730895996,0.9441100737778916,0.29023393684907905,-0.1562696688491066,-0.0004203704381463558
1715270023729340700,0.239340576171875,0.0041974131017923355,0.0006697102217003703,-0.007295734249055386,-0.2948349118232727,-0.5482431054115295,-0.7826250195503235,0.0036208629608154297,0.00014734268188476562,0.0019549131393432617,0.944093484893473,0.29028107304875905,-0.15628300478352564,-0.00044203751571297856
1715270023739330800,0.249330810546875,0.0022109614219516516,-0.000402744859457016,-0.008816399611532688,-0.2948128581047058,-0.5483139157295227,-0.7825837135314941,0.0019356012344360352,-0.00716710090637207,0.003515779972076416,0.9440825168210185,0.29031749232743065,-0.15628145270585364,-0.0004689809395719835
1715270023749320700,0.25932080078125,-0.0010132747702300549,-0.005374067462980747,-0.01210127491503954,-0.29481595754623413,-0.548323392868042,-0.7825759649276733,0.0024574995040893555,-0.0021680593490600586,0.00543057918548584,0.9440804169604734,0.290315444724959,-0.1562977115989858,-0.0005153993434746651
1715270023759310800,0.269310791015625,-0.013257423415780067,-0.00680498406291008,-0.01617564633488655,-0.29481709003448486,-0.5482367277145386,-0.7826362252235413,0.0001545548439025879,0.0013769268989562988,0.004209160804748535,0.9440963646451047,0.29025408048417767,-0.15631528745394585,-0.0005793079010441571
1715270023769300700,0.27930078125,-0.01913033239543438,-0.0047897701151669025,-0.015740418806672096,-0.2947613000869751,-0.5481239557266235,-0.7827361822128296,-0.00060310959815979,0.0011268258094787598,0.0035767555236816406,0.9441227313666247,0.290169745942904,-0.15631192361437957,-0.0006788768472816287
1715270023779292000,0.2892919921875,-0.02925274148583412,-0.0016030315309762955,-0.015387017279863358,-0.2946696877479553,-0.5480000972747803,-0.7828574180603027,0.00015974044799804688,-0.0017589330673217773,0.0016379952430725098,0.9441547387982934,0.29007718797936993,-0.15628988664146937,-0.000782520934377473
1715270023789281800,0.29928173828125,-0.028433553874492645,0.004517711699008942,-0.020495757460594177,-0.29452016949653625,-0.5478037595748901,-0.783051073551178,-0.0007221996784210205,-0.0012685656547546387,-0.002730727195739746,0.9442059566367483,0.28993884457463504,-0.15623680145368665,-0.0008955003026558384
1715270023799272000,0.30927197265625,-0.02256021834909916,0.003203175263479352,-0.01906750537455082,-0.29434332251548767,-0.5476008057594299,-0.7832595109939575,-0.002974212169647217,0.0012444853782653809,-0.005024731159210205,0.9442610667977094,0.28979672435749637,-0.1561668839722664,-0.0010029394493669685
1715270023809261800,0.31926171875,-0.012862849980592728,0.0062018949538469315,-0.021795114502310753,-0.2941608130931854,-0.5475470423698425,-0.7833656668663025,-0.0005932748317718506,0.0008703470230102539,-0.006200313568115234,0.9442890413343165,0.2897428108411037,-0.1560970116879793,-0.0011054334989392678
1715270023819252700,0.329252685546875,-0.012288939207792282,0.0029429844580590725,-0.01809784770011902,-0.29399585723876953,-0.5476282835006714,-0.7833707928657532,0.0018967986106872559,0.003026723861694336,-0.007309079170227051,0.9442902451083977,0.2897673034160778,-0.1560433520352359,-0.001215772827384387
1715270023829242600,0.33924267578125,-0.030899375677108765,0.011311435140669346,-0.012957947328686714,-0.29384008049964905,-0.5475701093673706,-0.7834698557853699,0.0005508065223693848,0.00333482027053833,-0.0040361881256103516,0.9443163652261988,0.289713049956708,-0.15598529722341198,-0.0013096960180826178
1715270023839233000,0.34923291015625,-0.04067818075418472,0.021341698244214058,-0.011881898157298565,-0.29367971420288086,-0.5473402738571167,-0.7836905717849731,-0.001913607120513916,-0.0013506412506103516,0.00164717435836792,0.9443747157276103,0.2895630658129477,-0.15591004405693143,-0.0013732866046449188
1715270023849223000,0.359222900390625,-0.04287039116024971,0.030308563262224197,-0.019012710079550743,-0.2934582531452179,-0.5471077561378479,-0.7839358448982239,-0.0006702244281768799,-0.011074066162109375,-0.0018306970596313477,0.9444395891539749,0.2894121148972971,-0.15579696164843007,-0.0014225113693096536
1715270023859212800,0.369212890625,-0.10039786249399185,0.062056370079517365,-0.040752097964286804,-0.29295387864112854,-0.5467188954353333,-0.7843956351280212,-0.0013424456119537354,-0.024860143661499023,-0.013532161712646484,0.9445610220700988,0.2891461404676802,-0.15555285136623798,-0.0015639934005994838
1715270023869203700,0.37920361328125,-0.21219024062156677,0.0805770605802536,-0.0033862139098346233,-0.29228052496910095,-0.5456257462501526,-0.7854073643684387,-0.010667562484741211,-0.05666929483413696,-0.026436448097229004,0.9448285414504304,0.28846703484242464,-0.15518727845731023,-0.0016816982266068536
1715270023879193900,0.38919384765625,-0.43395698070526123,0.08675585687160492,0.019335608929395676,-0.29168492555618286,-0.5431109666824341,-0.7873693108558655,-0.007982492446899414,-0.10183238983154297,-0.042601943016052246,0.9453473296769229,0.28696440663269546,-0.15481209721135447,-0.0017728356633314735
1715270023889183700,0.399183837890625,-0.6786585450172424,0.09522470831871033,0.05293198674917221,-0.29114487767219543,-0.5386315584182739,-0.7906394600868225,0.01055094599723816,-0.14076614379882812,-0.048685431480407715,0.9462114619267996,0.28431538061778727,-0.15441841738599116,-0.0018994179309544945
1715270023899173600,0.409173583984375,-0.9439437389373779,0.0423138253390789,0.08222462981939316,-0.2910171151161194,-0.532011866569519,-0.7951556444168091,0.02447652816772461,-0.169633150100708,-0.07174187898635864,0.9474035756929874,0.2804308574228152,-0.15420994822401862,-0.00210571033772311
1715270023909163800,0.419163818359375,-1.1096364259719849,0.10916076600551605,0.09277667105197906,-0.2908731997013092,-0.5235090851783752,-0.8008314967155457,0.02797946333885193,-0.1906328797340393,-0.11278843879699707,0.9488995416815946,0.2754662606025592,-0.15395645494176383,-0.0023690977124472545
1715270023919155000,0.429155029296875,-1.1005183458328247,0.1889413595199585,0.02614145167171955,-0.29001444578170776,-0.5144248604774475,-0.8070060014724731,0.01863682270050049,-0.21663904190063477,-0.1411139965057373,0.9505239145557571,0.27016318134092593,-0.1533259472567456,-0.0027122867766719017
1715270023929144800,0.439144775390625,-1.0542346239089966,0.31340017914772034,-0.08159945905208588,-0.2878260314464569,-0.5056880116462708,-0.813287079334259,-0.023422807455062866,-0.2243383526802063,-0.2250276803970337,0.9521725561315185,0.2650101298617909,-0.15207262755145934,-0.0033446344027636687
1715270023939134700,0.449134765625,-1.1587213277816772,0.4914740324020386,-0.15464144945144653,-0.2839950621128082,-0.49718040227890015,-0.8198527097702026,-0.05883947014808655,-0.269085556268692,-0.2835865616798401,0.9538915136387455,0.2599475504657357,-0.15000301229458107,-0.004189546701484692
1715270023949124900,0.459124755859375,-1.3700332641601562,0.6811769008636475,-0.33534345030784607,-0.27793094515800476,-0.48743799328804016,-0.8277431130409241,-0.061836570501327515,-0.364795982837677,-0.30883824825286865,0.9559503737911061,0.25409950012076965,-0.14683969179179363,-0.00553318836796779
1715270023959115800,0.46911572265625,-1.4980624914169312,0.9075490236282349,-0.47624117136001587,-0.2693610191345215,-0.4765743017196655,-0.8368521928787231,-0.0631280243396759,-0.42979785799980164,-0.3616340160369873,0.9583160160752244,0.24753316439622192,-0.14248238052472473,-0.007524795940965667
1715270023969105700,0.479105712890625,-1.4954355955123901,1.1877995729446411,-0.643622875213623,-0.2578545808792114,-0.46546050906181335,-0.8466744422912598,-0.06830209493637085,-0.4399045705795288,-0.45311498641967773,0.9608528216383189,0.24079506702911235,-0.13667670540079158,-0.00996243144880432
1715270023979095800,0.489095703125,-1.4878761768341064,1.3396044969558716,-0.7800148129463196,-0.24395905435085297,-0.45466354489326477,-0.8566008806228638,-0.10813754796981812,-0.3782680332660675,-0.571942150592804,0.9633970246902148,0.23423054845246521,-0.12975214339635088,-0.01290737398488584
1715270023989086000,0.4990859375,-1.2451720237731934,1.535084843635559,-0.9867261648178101,-0.22744780778884888,-0.44461002945899963,-0.8663656711578369,-0.1116635799407959,-0.31007450819015503,-0.6036050319671631,0.9658742794402351,0.22809121602579724,-0.1216206252168324,-0.016424701929665886
1715270023999075800,0.509075927734375,-0.7742871046066284,1.626722812652588,-0.9980040788650513,-0.20936104655265808,-0.43808525800704956,-0.8742135167121887,-0.035161092877388,-0.2488044798374176,-0.588600754737854,0.9678356105980355,0.2239882491070211,-0.11279409408450668,-0.020026123642304272
1715270024009066800,0.519066650390625,-0.3084569275379181,1.7574286460876465,-1.1880666017532349,-0.18982334434986115,-0.4354374408721924,-0.8799780607223511,0.03871552646160126,-0.15539821982383728,-0.5675011277198792,0.9692409814293695,0.22210237601746086,-0.10335139392296762,-0.023686069011692568
1715270024019057000,0.529056884765625,-0.01864510588347912,1.8940227031707764,-1.2571511268615723,-0.16827960312366486,-0.4364709258079529,-0.8838411569595337,-0.03190051019191742,0.02085191011428833,-0.5211271047592163,0.9701294087776505,0.2222931380984808,-0.09308704062988195,-0.027741192668156667
1715270024029046800,0.539046875,-0.039613183587789536,2.0548713207244873,-1.160568356513977,-0.1455821692943573,-0.43816834688186646,-0.8870255947113037,-0.15858657658100128,-0.08739021420478821,-0.546186625957489,0.9708378722805376,0.2230056423465086,-0.08219305811958798,-0.031411986470554154
1715270024039036700,0.54903662109375,-0.05890219658613205,2.2568013668060303,-1.1580208539962769,-0.12136571854352951,-0.4392002820968628,-0.8901536464691162,-0.15677154064178467,-0.19539758563041687,-0.5521222949028015,0.9715336237705966,0.22352393211936952,-0.0704289066235117,-0.03463250057910627
1715270024049026800,0.55902685546875,0.06280618906021118,2.3893401622772217,-1.1151902675628662,-0.09562943130731583,-0.4403820037841797,-0.8927030563354492,-0.16312912106513977,-0.12118729948997498,-0.562893807888031,0.9720799206291979,0.22427857575384702,-0.057858462450159506,-0.03757974992090862
1715270024059018000,0.56901806640625,0.22409626841545105,2.4910824298858643,-1.021360158920288,-0.06914965063333511,-0.44255009293556213,-0.8940736651420593,-0.19794021546840668,0.0037682652473449707,-0.5743558406829834,0.9723358426087787,0.22572588521426137,-0.044844033055086815,-0.03999822378394202
1715270024069008000,0.5790078125,0.3197963535785675,2.594003677368164,-0.9206100106239319,-0.04211381822824478,-0.4455733597278595,-0.8942543268203735,-0.2084507942199707,0.08509963750839233,-0.5494101643562317,0.9723073056165029,0.22778066481244794,-0.03144506397783202,-0.04178298753335641
1715270025707401200,2.217401123046875,0.4331245720386505,0.0838245153427124,3.647308349609375,0.03648688271641731,-0.6122100353240967,-0.7898528575897217,-0.11955574154853821,-0.0687592625617981,0.01508796215057373,0.9339433509587136,0.32252033991812906,-0.032468457426865355,-0.1505862887015849
1715270025717391400,2.227391357421875,0.48866933584213257,0.10641850531101227,3.5740623474121094,0.015079633332788944,-0.6167446374893188,-0.7870188355445862,-0.13104644417762756,-0.03488200902938843,0.012620151042938232,0.9357835389229252,0.32408859531543155,-0.03817288662937812,-0.13348626319810003
1715270025727382300,2.23738232421875,0.5919171571731567,0.1299842894077301,3.5044031143188477,-0.0058552357368171215,-0.6211382746696472,-0.7836791276931763,-0.14384877681732178,-0.003434598445892334,0.00934147834777832,0.9371430144724693,0.3259624415146056,-0.043691082536465614,-0.11663053777320781
1715270025737372200,2.2473720703125,0.6576516628265381,0.1759166270494461,3.434995412826538,-0.026298709213733673,-0.6254869699478149,-0.7797912955284119,-0.14577466249465942,-0.0028243064880371094,0.01814889907836914,0.9380281869621071,0.32818150683944386,-0.04900252131170127,-0.09999464073917408
1715270025747362000,2.257362060546875,0.6623188257217407,0.2294381856918335,3.3616933822631836,-0.04601091891527176,-0.6293862462043762,-0.7757293581962585,-0.14371690154075623,-0.01252061128616333,0.03903508186340332,0.938554037089636,0.3304943521098442,-0.05393337185031896,-0.08355339232653669
1715270025757352200,2.267352294921875,0.6553652882575989,0.30172088742256165,3.2554666996002197,-0.06478972733020782,-0.632634162902832,-0.7717359066009521,-0.14886388182640076,-0.00860130786895752,0.058982670307159424,0.938787905317046,0.33274780608722626,-0.0584032632581159,-0.06741866368195593
1715270025767343400,2.27734326171875,0.6295309066772461,0.35686030983924866,3.1546883583068848,-0.08254463970661163,-0.6352378129959106,-0.7678928375244141,-0.16222164034843445,-0.015671730041503906,0.05489546060562134,0.9387644214191003,0.33490434226626453,-0.06239131602206793,-0.05165184830251002
1715270025777333200,2.287333251953125,0.576788604259491,0.4210326373577118,3.067063093185425,-0.0993158146739006,-0.6370418071746826,-0.7644044160842896,-0.1743963658809662,-0.025876343250274658,0.0375216007232666,0.9385573108600322,0.33682874669086404,-0.06591040006374776,-0.03622843983151525
1715270025787323100,2.2973232421875,0.4835500419139862,0.4881802499294281,2.9774301052093506,-0.11509520560503006,-0.6378538608551025,-0.7615087628364563,-0.18763920664787292,-0.02926051616668701,0.014804720878601074,0.9382477137766263,0.3383659569570524,-0.06894989646448213,-0.02111465318888084
1715270025797313300,2.307313232421875,0.3819690942764282,0.5641583800315857,2.8850622177124023,-0.1297791749238968,-0.6375474333763123,-0.7594015598297119,-0.2087828665971756,-0.043925464153289795,0.00023114681243896484,0.9379022888511657,0.33939640048636455,-0.07147942389485737,-0.006338089206537112
1715270025807303200,2.31730322265625,0.2973281741142273,0.6327771544456482,2.7858235836029053,-0.14327360689640045,-0.6362643837928772,-0.7580503821372986,-0.22157934308052063,-0.07574129104614258,-0.0026459693908691406,0.9375286045515586,0.33996465252163754,-0.07347687864890326,0.008089462612643372
1715270025817294000,2.327294189453125,0.19074901938438416,0.6650887131690979,2.7057597637176514,-0.15576142072677612,-0.6339935064315796,-0.7574897408485413,-0.21217378973960876,-0.11149001121520996,-0.004946112632751465,0.937152727739792,0.34002798155115194,-0.07507401192734384,0.022130230454171562
1715270025827284200,2.3372841796875,0.12542535364627838,0.7100969552993774,2.614657163619995,-0.16736586391925812,-0.6309007406234741,-0.7575967907905579,-0.19716665148735046,-0.11783283948898315,0.003568589687347412,0.9367580662387268,0.33966583259695227,-0.07634606372505065,0.03581501924752434
1715270025837274000,2.347274169921875,0.09251401573419571,0.7541823983192444,2.489959239959717,-0.1778552234172821,-0.6272684335708618,-0.7582228183746338,-0.20309576392173767,-0.10042327642440796,0.015470802783966064,0.9363255552992797,0.3390078592951772,-0.07721566419526946,0.04905081327353511
1715270025847264300,2.35726416015625,0.12784552574157715,0.761683464050293,2.3690385818481445,-0.18725477159023285,-0.6236733198165894,-0.7589250802993774,-0.22720451653003693,-0.0736534595489502,0.031141936779022217,0.9357626287722738,0.3383713884050342,-0.07773194072163286,0.06173317053268346
1715270025857254100,2.367254150390625,0.19279390573501587,0.7753228545188904,2.2801482677459717,-0.19587576389312744,-0.6203910112380981,-0.7594391107559204,-0.25245803594589233,-0.08049100637435913,0.04361879825592041,0.9350146535066307,0.33792468039155343,-0.07802158654733149,0.0739411919242503
1715270025867245300,2.377245361328125,0.2384396344423294,0.7867565751075745,2.1862285137176514,-0.2037479281425476,-0.6176338791847229,-0.7596151828765869,-0.26019561290740967,-0.10985946655273438,0.057833075523376465,0.9340495313157098,0.33778933331124206,-0.07804337180333257,0.0857859873454494
1715270025877235200,2.387235107421875,0.2362814098596573,0.7947465777397156,2.0400636196136475,-0.21075887978076935,-0.6149683594703674,-0.759864866733551,-0.2630571126937866,-0.11002254486083984,0.062217891216278076,0.933009890353919,0.3376580431904996,-0.0778113214366157,0.09708256452046693
1715270025887225000,2.39722509765625,0.32954782247543335,0.7800917625427246,1.8758435249328613,-0.21677233278751373,-0.612934410572052,-0.759816586971283,-0.28074055910110474,-0.06913357973098755,0.07304906845092773,0.9318389397151162,0.3378122627742247,-0.07729543809626606,0.10763157388325201
1715270025897215200,2.40721533203125,0.40560048818588257,0.7727707028388977,1.7656575441360474,-0.22197122871875763,-0.6117811799049377,-0.7592447400093079,-0.30503690242767334,-0.08760547637939453,0.06655687093734741,0.930488408703446,0.3384088248896073,-0.07653158747740368,0.11753197120768472
1715270025907206400,2.417206298828125,0.3851388692855835,0.7991903424263,1.6547883749008179,-0.2265041321516037,-0.6109743118286133,-0.7585554718971252,-0.31115463376045227,-0.15292656421661377,0.04450523853302002,0.9290636539548067,0.33913667729248376,-0.07555518816173645,0.12695909529863736
1715270025917196300,2.4271962890625,0.3804074823856354,0.8908771276473999,1.4979997873306274,-0.229715496301651,-0.6102684140205383,-0.7581578493118286,-0.2983759641647339,-0.19887471199035645,0.03498286008834839,0.927698306530141,0.3397598780198912,-0.07405609005658603,0.13584900691661372
1715270025927186200,2.437186279296875,0.3006766438484192,0.9359521865844727,1.33348548412323,-0.23137333989143372,-0.6096231937408447,-0.7581728100776672,-0.27642399072647095,-0.22155368328094482,0.010766863822937012,0.9264557951575385,0.3402002688196698,-0.07195390788157144,0.1441049946902681
1715270025937176300,2.44717626953125,0.22454112768173218,0.9025526642799377,1.188890814781189,-0.2320459634065628,-0.6086722016334534,-0.7587311267852783,-0.21584534645080566,-0.21124368906021118,-0.015972793102264404,0.9254141766024108,0.34027124761994754,-0.06964132874054516,0.15157292294704883
1715270025947166200,2.457166259765625,0.16605336964130402,0.902681291103363,1.03700590133667,-0.23199567198753357,-0.6075899004936218,-0.7596135139465332,-0.1536550223827362,-0.17454522848129272,0.0016179084777832031,0.9245213662409281,0.34010917856837486,-0.06722352022363931,0.15832638985543768
1715270025957157000,2.4671572265625,0.05597666651010513,0.8855010271072388,0.8743610978126526,-0.2309558391571045,-0.6062395572662354,-0.7610079050064087,-0.1636975258588791,-0.18216687440872192,0.015021085739135742,0.923858795063615,0.3395906502155955,-0.06460836169759449,0.1642828301309618
1715270025967147000,2.47714697265625,-0.08811121433973312,0.821607768535614,0.7678042054176331,-0.22936564683914185,-0.604265034198761,-0.7630564570426941,-0.18138574063777924,-0.2276442050933838,0.028483211994171143,0.9234729890137887,0.33855803465083517,-0.062050135737798634,0.16948703155993877
1715270025977137200,2.48713720703125,-0.26403748989105225,0.790152907371521,0.6759933233261108,-0.22759366035461426,-0.601273238658905,-0.7659448981285095,-0.17212563753128052,-0.29029780626296997,0.06236225366592407,0.9233923108878062,0.33683983010274143,-0.05972003540440882,0.1741237381329962
1715270025987127300,2.497127197265625,-0.4204588830471039,0.7966368794441223,0.5510231852531433,-0.22515524923801422,-0.5972230434417725,-0.7698245048522949,-0.17892807722091675,-0.3158476948738098,0.08757364749908447,0.9236678271809871,0.3343580428780007,-0.05737977242777975,0.17818554909437867
1715270025997117200,2.5071171875,-0.5142876505851746,0.767434298992157,0.45088061690330505,-0.2220691442489624,-0.592481255531311,-0.7743715643882751,-0.19303101301193237,-0.2959465980529785,0.10019254684448242,0.9242230195025113,0.3313422132241919,-0.055014229628777334,0.18165254430783134
1715270026007108000,2.517108154296875,-0.5280835628509521,0.7327314019203186,0.3765244483947754,-0.21867923438549042,-0.5874670743942261,-0.7791417241096497,-0.19069890677928925,-0.2533685564994812,0.08848321437835693,0.9249172454634794,0.328101748341724,-0.052710282982054574,0.1846590818957031
1715270026017098200,2.52709814453125,-0.5053276419639587,0.7033439874649048,0.2872723340988159,-0.21503929793834686,-0.5827215313911438,-0.7837051749229431,-0.1867704838514328,-0.19768935441970825,0.07682657241821289,0.9256308211454648,0.32496945654801673,-0.0504207424992677,0.18724422196960688
1715270026027088100,2.537088134765625,-0.44555366039276123,0.673822820186615,0.1850517988204956,-0.2109774649143219,-0.5784215331077576,-0.7879829406738281,-0.18955054879188538,-0.15038412809371948,0.0605660080909729,0.9263618913839425,0.32202297674654906,-0.04805960739120342,0.189328557170363
1715270026037078000,2.547078125,-0.3016311228275299,0.6173430681228638,0.12815043330192566,-0.20673593878746033,-0.5751398801803589,-0.7915014028549194,-0.18642209470272064,-0.11474061012268066,0.04235595464706421,0.9269716121589725,0.3196320516923365,-0.04565795746955756,0.19098315964099852
1715270026047068200,2.557068115234375,-0.1718214452266693,0.5518338084220886,0.09430040419101715,-0.20275315642356873,-0.573052704334259,-0.7940414547920227,-0.17763325572013855,-0.11757540702819824,0.01973426342010498,0.9273677465328303,0.31796149259459666,-0.043356318585353396,0.19237967246283225
1715270026057059300,2.567059326171875,-0.05244738236069679,0.5042242407798767,0.048514269292354584,-0.19897332787513733,-0.5720071196556091,-0.7957496643066406,-0.17523330450057983,-0.11064064502716064,0.0009499192237854004,0.9275908790073735,0.31691159589071227,-0.0411365134053297,0.19352023678516744
1715270026067049200,2.57704931640625,0.013042144477367401,0.4543626308441162,-0.006446851417422295,-0.19527198374271393,-0.5718246102333069,-0.7967970371246338,-0.18191006779670715,-0.10052353143692017,-0.013429343700408936,0.927694355194623,0.3163598578162303,-0.03896053867721917,0.19437523930326367
1715270026077039400,2.587039306640625,0.06415405869483948,0.38951224088668823,-0.038399990648031235,-0.19175903499126434,-0.5721727609634399,-0.7973999977111816,-0.18156255781650543,-0.10504287481307983,-0.023705899715423584,0.9277389217982875,0.31612769129090396,-0.036922475730282844,0.19493736290026176
1715270026087029200,2.597029296875,0.08027508109807968,0.3146055340766907,-0.056776467710733414,-0.1886676698923111,-0.5728754997253418,-0.7976329326629639,-0.16974608600139618,-0.10990965366363525,-0.026112794876098633,0.9277299299704304,0.3161470976595306,-0.03513631998857042,0.19527878848097038
1715270026097019100,2.60701904296875,0.040943656116724014,0.24531914293766022,-0.06332438439130783,-0.18610617518424988,-0.5734454989433289,-0.797825038433075,-0.1510673612356186,-0.1292523741722107,-0.030711889266967773,0.9277441285553555,0.31615221411258454,-0.0336934703882501,0.19545700528224724
1715270026107010000,2.617010009765625,-0.008884619921445847,0.1851135939359665,-0.08189147710800171,-0.1839631348848343,-0.5737020373344421,-0.7981375455856323,-0.12489008903503418,-0.13380229473114014,-0.0308113694190979,0.9278265494858988,0.3160238744641481,-0.032559768421379864,0.19546544451778547
1715270026117000200,2.627000244140625,-0.01612655445933342,0.13143038749694824,-0.09696736186742783,-0.18217504024505615,-0.5737391114234924,-0.7985209226608276,-0.10668914020061493,-0.12427419424057007,-0.03911024332046509,0.9279686724395891,0.31580797095977214,-0.03169966761278095,0.19528075270131273
1715270026126990000,2.636989990234375,-0.017038527876138687,0.0754760354757309,-0.10274269431829453,-0.1807837337255478,-0.573813259601593,-0.7987838387489319,-0.10528813302516937,-0.11068087816238403,-0.04748380184173584,0.9281040446675304,0.3156613124843826,-0.03108062340787604,0.1949742076709083
1715270026136980200,2.646980224609375,-0.02950025536119938,0.027116764336824417,-0.1111241951584816,-0.1797606498003006,-0.5738313794136047,-0.7990016341209412,-0.10617385804653168,-0.08717936277389526,-0.04622834920883179,0.9282510961149141,0.31552640189959175,-0.03069621914549761,0.1945527429160422
1715270026146971100,2.65697119140625,-0.02919713594019413,-0.0033942735753953457,-0.13430848717689514,-0.17895087599754333,-0.5738087296485901,-0.7991997599601746,-0.10272642970085144,-0.05605894327163696,-0.040125131607055664,0.9284215991376783,0.315391077847225,-0.030472915376430904,0.1939932085650073
1715270026156961300,2.666961181640625,0.19809406995773315,0.015480347909033298,-0.5020443797111511,-0.17768296599388123,-0.5744437575340271,-0.799026370048523,-0.08815573155879974,-0.045108914375305176,-0.035430967807769775,0.928598110560269,0.3155630591904899,-0.03011252915951443,0.19292196482646348
1715270026166951200,2.676951171875,0.1942652463912964,-0.1768755167722702,-0.8114752173423767,-0.1740923672914505,-0.5778947472572327,-0.7973265051841736,-0.07241344451904297,-0.06491231918334961,-0.04146432876586914,0.9288620829359158,0.31700440748259284,-0.029068161249210772,0.18941650795930196
1715270026176941000,2.686941162109375,-0.28864896297454834,-0.07358348369598389,-0.24479398131370544,-0.17215977609157562,-0.5782409906387329,-0.7974951267242432,-0.030782192945480347,-0.21672677993774414,-0.046804189682006836,0.9294470706254067,0.3168827899800154,-0.028943852499529438,0.18675078580278076
1715270026186931200,2.69693115234375,-0.10863155871629715,-0.0647234171628952,-0.2458343505859375,-0.17143525183200836,-0.5766647458076477,-0.7987914681434631,0.0022915005683898926,-0.06365519762039185,0.02549135684967041,0.9300026339749621,0.3158443657881804,-0.02909642397956111,0.18571764951332695
1715270026196922400,2.70692236328125,0.17253753542900085,-0.1742032915353775,-0.4965733587741852,-0.1700998991727829,-0.577755331993103,-0.7982886433601379,-0.06856288015842438,0.14471089839935303,0.02143329381942749,0.9302596610890375,0.31625460102398983,-0.02896018698842459,0.18374263057204843
1715270026206912300,2.716912353515625,0.16736534237861633,-0.24477146565914154,-0.42764320969581604,-0.16897590458393097,-0.5799957513809204,-0.796901524066925,-0.1015167087316513,0.00011593103408813477,-0.0346718430519104,0.9303840865079417,0.3173454539270653,-0.029001496633456164,0.18120763405675117
1715270026216902100,2.726902099609375,0.06432978063821793,-0.23859639465808868,-0.2585327625274658,-0.16896066069602966,-0.581497848033905,-0.7958093881607056,-0.010726884007453918,0.007279038429260254,0.0008875727653503418,0.9304666700817043,0.31815922997112445,-0.029496038234683303,0.17926636760485887
1715270026226892300,2.736892333984375,0.02063673362135887,-0.2176429182291031,-0.25129303336143494,-0.16933244466781616,-0.5821971893310547,-0.795218825340271,0.04170785844326019,0.05528056621551514,0.02011817693710327,0.9305968439540105,0.3185636816062659,-0.03012896876221416,0.17776132398541067
1715270026236882200,2.746882080078125,0.06593523919582367,-0.25017449259757996,-0.3657061457633972,-0.1693783402442932,-0.5830015540122986,-0.7946195602416992,-0.0018863677978515625,0.02819192409515381,0.01915264129638672,0.9307740872081786,0.31898133122700734,-0.030678008618187008,0.17598169488103066
1715270026246873000,2.756873046875,0.18412312865257263,-0.34271642565727234,-0.48380976915359497,-0.1692519187927246,-0.5846940279006958,-0.7934020161628723,-0.037794649600982666,-0.015571534633636475,0.01552426815032959,0.9309007736325533,0.3198771305765967,-0.03126689664904572,0.17356533557211318
1715270026256863200,2.76686328125,0.19249078631401062,-0.42179152369499207,-0.3235175609588623,-0.16978883743286133,-0.5869470834732056,-0.7916216850280762,0.005421102046966553,-0.004971921443939209,0.008784830570220947,0.9309172446134999,0.32116971396889604,-0.032236069949060114,0.17089189895397627
1715270026266853000,2.77685302734375,0.1900859922170639,-0.3645050823688507,-0.0955289900302887,-0.17173318564891815,-0.5888253450393677,-0.7898052930831909,0.06917881965637207,0.07042324542999268,0.01687145233154297,0.9307005158283099,0.3224446285204158,-0.033567954618672374,0.16940855452286507
1715270026276843000,2.786843017578125,0.10261660814285278,-0.25038328766822815,-0.005005748942494392,-0.17386563122272491,-0.5900705456733704,-0.7884082198143005,0.03887106478214264,0.12035912275314331,0.020219802856445312,0.9304545962914086,0.3233961204209725,-0.03479711675850161,0.1686961363064287
1715270026286833400,2.79683349609375,0.15589873492717743,-0.09744779765605927,0.4697527587413788,-0.17612631618976593,-0.5908882021903992,-0.7872933149337769,-0.039571985602378845,0.1215735673904419,0.027878642082214355,0.9300843410973947,0.3241528268981476,-0.03575332616849103,0.1690855112121844
1715270026296824300,2.80682421875,0.15171997249126434,0.008868250995874405,0.3558824062347412,-0.17900533974170685,-0.5917330384254456,-0.786008358001709,-0.07224594056606293,0.13136005401611328,0.03082042932510376,0.9293551406836689,0.325067114794999,-0.036430606021355366,0.171182187063893
1715270026306814200,2.816814208984375,0.008318601176142693,-0.01698172092437744,-0.1711415946483612,-0.17964324355125427,-0.5919638276100159,-0.7856889963150024,-0.1435379683971405,-0.06732279062271118,0.03141659498214722,0.9291829946352193,0.3252964614050752,-0.03657470011235425,0.17164967778856732
1715270026316804000,2.82680419921875,0.1872928887605667,-0.07287028431892395,-0.2887435853481293,-0.17834456264972687,-0.593222439289093,-0.785035252571106,-0.0458986759185791,-0.027978181838989258,0.07924002408981323,0.9292736136829384,0.3258312553850417,-0.036281663222696575,0.1702006339755871
1715270026326794200,2.836794189453125,0.3012595474720001,-0.06981244683265686,-0.023950345814228058,-0.17807725071907043,-0.5956351161003113,-0.7832671403884888,0.13017986714839935,0.10550743341445923,0.046710193157196045,0.9289299221998973,0.3271990996098432,-0.0361549931804403,0.16947837831558193
1715270026336785200,2.84678515625,0.004208172671496868,-0.047805946320295334,-0.13265526294708252,-0.17823658883571625,-0.5969574451446533,-0.7822234630584717,0.10513164103031158,0.008334338665008545,0.020458996295928955,0.928712780011914,0.3279873897093152,-0.036228976550817193,0.16912838393766122
1715270026346775300,2.856775390625,-0.15833865106105804,0.016451869159936905,-0.2290361225605011,-0.1772170513868332,-0.5965619683265686,-0.7827566266059875,-0.03179788589477539,-0.03609800338745117,0.0649070143699646,0.929023684384644,0.32759894233455733,-0.03606407046623289,0.16820613357833214
1715270026356765200,2.86676513671875,-0.12637938559055328,-0.02389741875231266,-0.13523054122924805,-0.1760624498128891,-0.595740020275116,-0.7836427092552185,-0.06925316154956818,-0.014153897762298584,0.05459308624267578,0.9294286396030151,0.3269433558857762,-0.03587031659224815,0.16728378557283907
1715270026366755300,2.87675537109375,-0.09662576764822006,-0.09791038930416107,0.0012761821271851659,-0.17618341743946075,-0.5950267910957336,-0.7841572165489197,0.008123055100440979,-0.004338502883911133,0.000023424625396728516,0.9296420341048619,0.3265188508499119,-0.036150240692917696,0.1668661055875349
1715270026376745200,2.8867451171875,-0.132304385304451,-0.107478067278862,0.03208469599485397,-0.17715439200401306,-0.5940713286399841,-0.7846627831459045,0.06314066052436829,0.027741312980651855,-0.023885130882263184,0.9297927569227589,0.3260614015494637,-0.03677721203122117,0.16678455890602384
1715270026386736000,2.896736083984375,-0.10784779489040375,-0.11260251700878143,0.016801079735159874,-0.17815518379211426,-0.5930402874946594,-0.7852159142494202,0.020135104656219482,0.023002326488494873,-0.01983773708343506,0.9299579463719926,0.32556258002160265,-0.037430443837636634,0.16669253180627341
1715270026396726000,2.90672607421875,-0.03960775211453438,-0.12901504337787628,-0.02540815994143486,-0.17909039556980133,-0.5924614071846008,-0.7854400873184204,-0.01629847288131714,0.033318281173706055,-0.020330727100372314,0.9300560209490121,0.3253188999526996,-0.03804695379500653,0.16648094171001815
1715270026406716200,2.916716064453125,-0.018369413912296295,-0.13135436177253723,-0.027274567633867264,-0.1799236387014389,-0.592308521270752,-0.7853649854660034,-0.0029835104942321777,0.03397411108016968,-0.030339300632476807,0.9301024471357244,0.3253084814272681,-0.038625233378215135,0.1661081626407364
1715270026416706000,2.9267060546875,-0.003422423265874386,-0.1159311980009079,0.038482073694467545,-0.1806560754776001,-0.5922314524650574,-0.7852548956871033,0.012488901615142822,-0.00046575069427490234,-0.031075000762939453,0.9301125236984213,0.3253374155164871,-0.03909116695997947,0.16588578199438736
1715270026426696200,2.9366962890625,0.059964753687381744,-0.1205267608165741,0.08704181760549545,-0.1820467859506607,-0.5924708843231201,-0.7847529649734497,0.01529867947101593,-0.009930908679962158,-0.022940456867218018,0.9299555512371804,0.32564344465348,-0.03974753855223406,0.1660096337680565
1715270026436687000,2.94668701171875,0.10993603616952896,-0.11280438303947449,0.12209993600845337,-0.18377308547496796,-0.5930581092834473,-0.7839065790176392,0.004314392805099487,0.02581256628036499,-0.025602638721466064,0.9296674756418122,0.326203816281051,-0.040469429385922934,0.16634824393841546
1715270026446677200,2.95667724609375,0.10353098064661026,-0.1110144704580307,0.15539485216140747,-0.1854301542043686,-0.5936874151229858,-0.7830395698547363,-0.007776707410812378,0.01907181739807129,-0.031245648860931396,0.9293483619532881,0.3267887362330613,-0.041101598812780304,0.16682758923541663
1715270026456667100,2.966667236328125,0.021480849012732506,-0.09876473248004913,0.19850502908229828,-0.1870982050895691,-0.5938047766685486,-0.7825536131858826,0.0008035898208618164,-0.01857626438140869,-0.027520179748535156,0.929102896428428,0.327080314214687,-0.04173316426386092,0.16746559261534538
1715270026466657300,2.9766572265625,0.14851176738739014,-0.3686835765838623,0.23863667249679565,-0.1894865781068802,-0.5935191512107849,-0.7821955680847168,0.01733684539794922,-0.03578394651412964,-0.024841725826263428,0.9288755253052686,0.3272229179189818,-0.042747854816626824,0.16819070513699363
1715270026476648200,2.986648193359375,0.5344032645225525,-0.2359798401594162,0.28472986817359924,-0.19369418919086456,-0.5962374806404114,-0.779091477394104,0.017348289489746094,-0.022826969623565674,-0.02796107530593872,0.9278764451943248,0.3293738583319008,-0.044352257580812265,0.16908956249034796
1715270026486638300,2.996638427734375,0.3049575090408325,-0.31437212228775024,0.1401868760585785,-0.19705143570899963,-0.5985573530197144,-0.7764662504196167,0.0023950189352035522,0.03074723482131958,-0.023292601108551025,0.9270845706132012,0.3311762515578383,-0.045707503678071526,0.1695501981772387
1715270026496628200,3.006628173828125,0.09322395920753479,-0.2266814112663269,0.15037399530410767,-0.19950802624225616,-0.5996910333633423,-0.7749627232551575,-0.04052802920341492,0.04871135950088501,-0.0006567239761352539,0.9266317764413446,0.3321596143456524,-0.04678274294530885,0.1698088454577677
1715270026506618400,3.016618408203125,0.015948237851262093,-0.18366603553295135,0.04683321341872215,-0.2012072652578354,-0.5996086001396179,-0.7745871543884277,0.011128455400466919,-0.03637784719467163,0.057561516761779785,0.926518267700903,0.3323186217319519,-0.04765236939840861,0.16987564928227533
1715270026516608300,3.026608154296875,0.05361705645918846,-0.10803866386413574,-0.05517357960343361,-0.20189091563224792,-0.5993785858154297,-0.7745872735977173,0.04173462092876434,-0.026735424995422363,0.02577751874923706,0.9265689413671994,0.3322496160771757,-0.048130681244040296,0.16959858991420979
1715270026526599200,3.03659912109375,0.06449244171380997,-0.038550131022930145,-0.12137763202190399,-0.20167994499206543,-0.5995522141456604,-0.7745078206062317,0.03551165759563446,-0.014247894287109375,0.002184271812438965,0.9266384048150251,0.33230196176043725,-0.04818204793544345,0.16910111659385174
1715270026536589000,3.046589111328125,0.04380900785326958,-0.016720730811357498,-0.14541958272457123,-0.2007410228252411,-0.60015869140625,-0.7742820382118225,-0.010791629552841187,0.02131640911102295,-0.00007092952728271484,0.9267066693144008,0.3325143055025182,-0.04788760695570901,0.168392000757219
1715270026546579200,3.0565791015625,0.014384590089321136,-0.0034193075262010098,-0.17539753019809723,-0.1993826925754547,-0.600801944732666,-0.7741341590881348,-0.005359813570976257,0.059984564781188965,-0.0034384727478027344,0.9268138669113315,0.3326942107295629,-0.047407749372126384,0.1675808711123924
1715270026556569000,3.066569091796875,-0.062104061245918274,-0.012481777928769588,-0.23552104830741882,-0.19783693552017212,-0.6010357737541199,-0.7743491530418396,0.01589106023311615,0.0358654260635376,-0.019168853759765625,0.9270556983050727,0.33259824696353385,-0.046945093777337576,0.1665605625536854
1715270026566559000,3.07655908203125,-0.28601256012916565,0.030903512611985207,-0.22925183176994324,-0.1963244378566742,-0.5998277068138123,-0.7756697535514832,0.02693656086921692,-0.03882896900177002,-0.01334691047668457,0.9276081675123476,0.3316435795236976,-0.04666555554385851,0.16546338950897027
1715270026576550100,3.086550048828125,-0.5675041675567627,0.1515103578567505,-0.17669381201267242,-0.19445045292377472,-0.5969031453132629,-0.778393030166626,0.03234100341796875,-0.08534789085388184,0.001339256763458252,0.9285007666910248,0.3296377535276368,-0.046286501034918215,0.16456905398578925
1715270026586540300,3.096540283203125,-0.8198170065879822,0.31675976514816284,-0.1601914018392563,-0.19162295758724213,-0.591754674911499,-0.7830115556716919,0.018542438745498657,-0.04830580949783325,0.00173109769821167,0.9298382023739704,0.3262281253192075,-0.0454909354734003,0.1640332891231827
1715270026596530200,3.1065302734375,-0.7189194560050964,0.43334734439849854,-0.18732795119285583,-0.18778342008590698,-0.5858027338981628,-0.7883987426757812,-0.019980311393737793,-0.002026975154876709,-0.022697389125823975,0.9313600087072339,0.322252674109978,-0.04420213330410966,0.16360954390156313
1715270026606520000,3.11652001953125,-0.38769471645355225,0.20200762152671814,-0.24843192100524902,-0.18392524123191833,-0.5818198919296265,-0.7922481298446655,-0.06746338307857513,-0.01395958662033081,-0.0380130410194397,0.932514437406046,0.319442050535692,-0.04281018844859939,0.16291374198891073
1715270026616510200,3.12651025390625,-0.06829090416431427,0.048589300364255905,-0.026417763903737068,-0.1821700632572174,-0.5803453326225281,-0.7937337756156921,-0.08122721314430237,-0.006400883197784424,-0.03861778974533081,0.9330090418103988,0.3183553399927275,-0.04222533598744875,0.16236075066508943
1715270026626501000,3.136501220703125,0.03057330660521984,0.07820364832878113,0.05972111597657204,-0.18192997574806213,-0.58022540807724,-0.7938765287399292,0.046660736203193665,0.08700025081634521,-0.041908323764801025,0.9330028020522529,0.31826979756608326,-0.04202472851149802,0.16261611919844055
1715270026636491300,3.1464912109375,0.1343761384487152,0.08116135001182556,0.008012915030121803,-0.18146365880966187,-0.5807799696922302,-0.7935777306556702,0.03850400447845459,0.02786242961883545,-0.01889169216156006,0.9328697011315749,0.3185566531021665,-0.041626842287692936,0.16292051193266865
1715270026646481200,3.156481201171875,0.22825665771961212,0.04216442257165909,-0.025737259536981583,-0.18091028928756714,-0.5823162794113159,-0.7925775647163391,-0.030317187309265137,-0.005925357341766357,0.005559802055358887,0.9325860401042189,0.3194004789493697,-0.04116503107696648,0.1630091778125512
1715270026656471300,3.16647119140625,0.16748200356960297,0.06406732648611069,0.014612028375267982,-0.18048471212387085,-0.5839424729347229,-0.7914774417877197,-0.01705564558506012,-0.007503509521484375,0.007664024829864502,0.9322772663008321,0.3203117331052387,-0.0407635891353787,0.16308920935905186
1715270026666462200,3.176462158203125,0.14801637828350067,0.09373493492603302,0.058272622525691986,-0.1800488382577896,-0.5850414037704468,-0.7907648086547852,0.01844295859336853,0.015857994556427002,0.009423375129699707,0.9320247260708848,0.32092436739148,-0.04031302469205869,0.16343939414246467
1715270026676452000,3.1864521484375,0.26070722937583923,0.06432032585144043,0.028589295223355293,-0.17967355251312256,-0.586557149887085,-0.7897266149520874,0.01143006980419159,0.00599062442779541,0.006950855255126953,0.9316780560258283,0.32179093543149406,-0.0398406174304744,0.16382731365163616
1715270026686442200,3.196442138671875,0.32530614733695984,0.030646517872810364,0.035800736397504807,-0.1794716715812683,-0.5888943672180176,-0.7880313992500305,-0.0065940916538238525,-0.028903543949127197,-0.007363438606262207,0.9311771605705536,0.32315655302963053,-0.03942275643763954,0.1640884621166327
1715270026696432000,3.20643212890625,0.2525451183319092,0.04270531237125397,0.07673592120409012,-0.17951123416423798,-0.5911195874214172,-0.7863544821739197,-0.004906550049781799,-0.03375840187072754,-0.014319896697998047,0.9306599931317414,0.32449043155513024,-0.039098858389202906,0.1644666988960944
1715270026706422000,3.216422119140625,0.19544774293899536,0.047439876943826675,0.10471082478761673,-0.17970560491085052,-0.5926644206047058,-0.7851463556289673,-0.0008211880922317505,-0.013674139976501465,-0.002023935317993164,0.9302369736854672,0.32544882414539383,-0.038857358174594625,0.16502210532985878
1715270026716413200,3.2264130859375,0.23709292709827423,0.005535039119422436,0.11498689651489258,-0.1801316738128662,-0.5941101312637329,-0.7839552164077759,0.00003212690353393555,0.0008635520935058594,0.008488357067108154,0.929810222576947,0.32637779615321316,-0.038728764074223127,0.16562228915941496
1715270026726403300,3.2364033203125,0.3036472499370575,-0.031988102942705154,0.12268683314323425,-0.18096300959587097,-0.5960448384284973,-0.7822933793067932,0.0021604597568511963,-0.00017714500427246094,0.004812359809875488,0.9292578379314836,0.3276439525359801,-0.038765298994230035,0.1662125905420948
1715270026736393200,3.246393310546875,0.24189865589141846,-0.029478605836629868,0.11742762476205826,-0.18193122744560242,-0.5980058908462524,-0.7805703282356262,0.006378784775733948,0.01129007339477539,0.001471877098083496,0.9286938692785431,0.328942576849378,-0.038879464078541204,0.16677224318614936
1715270026746383000,3.256383056640625,0.13493981957435608,0.001855349401012063,0.10058679431676865,-0.1826983392238617,-0.5992645621299744,-0.7794250249862671,0.0015764683485031128,0.01656186580657959,0.014349400997161865,0.9282912894846794,0.329801295514378,-0.03896928394842586,0.16729566074473012
1715270026756373200,3.266373291015625,0.14204087853431702,0.02195662260055542,0.03524240478873253,-0.18301384150981903,-0.6001409292221069,-0.7786763310432434,-0.0026704221963882446,0.017926514148712158,0.03156036138534546,0.9280215997717104,0.33037496390110155,-0.038913031491670386,0.16767246724629264
1715270026766364200,3.2763642578125,0.2295781373977661,0.01805775612592697,-0.030629418790340424,-0.182816743850708,-0.6016191244125366,-0.7775811553001404,-0.0019977539777755737,0.011164963245391846,0.02481943368911743,0.9277129513312481,0.3312349098541404,-0.038637512643917876,0.16774756857022682
1715270026776354000,3.28635400390625,0.2562297284603119,0.007562237326055765,-0.04789522662758827,-0.18242037296295166,-0.6036600470542908,-0.7760910987854004,0.0018172860145568848,0.007300674915313721,0.010862886905670166,0.9273352210695516,0.332399430087035,-0.0382761827454533,0.16761561228603739
1715270026786344200,3.29634423828125,0.19852668046951294,0.004644744098186493,-0.09189044684171677,-0.1818581521511078,-0.6054327487945557,-0.7748411297798157,-0.0010642707347869873,0.0030156970024108887,0.014266908168792725,0.9270478080775822,0.3333804643934923,-0.037906288154661544,0.16734074846095492
1715270026796334300,3.306334228515625,0.1745539754629135,0.0003381466958671808,-0.11762404441833496,-0.18116679787635803,-0.6068087816238403,-0.7739261984825134,-0.006546899676322937,-0.0036039352416992188,0.028946399688720703,0.9268785459988959,0.3341045048183324,-0.03756442442673416,0.16691107001697703
1715270026806325200,3.3163251953125,0.13302910327911377,-0.007136281579732895,-0.10663523524999619,-0.1804686039686203,-0.6079979538917542,-0.7731555700302124,-0.004223838448524475,-0.013538360595703125,0.030998706817626953,0.9267589262568514,0.33471465550784774,-0.03725999570989491,0.16642015606057015
1715270026816315100,3.326315185546875,0.04844045266509056,-0.00797544326633215,-0.0762253999710083,-0.17988523840904236,-0.608439028263092,-0.7729445099830627,0.001479417085647583,-0.006993770599365234,0.032069385051727295,0.926773913895769,0.33489475549168013,-0.03705717649266016,0.16601931605828224
1715270026826305000,3.336304931640625,0.020506665110588074,-0.0058454470708966255,-0.060748640447854996,-0.179683655500412,-0.6084364652633667,-0.7729935050010681,-0.0016976147890090942,-0.00020623207092285156,0.03402566909790039,0.9268325217330943,0.33485967969388214,-0.037043910938209273,0.16576593414939494
1715270026836295200,3.346295166015625,0.06086580827832222,-0.01053740456700325,-0.04204472899436951,-0.17973576486110687,-0.6087160706520081,-0.7727611660957336,-0.008969739079475403,-0.0037107467651367188,0.026499688625335693,0.9268059861365381,0.3350250210410932,-0.03711672520620832,0.1655633882586388
1715270026846285000,3.35628515625,0.02267410419881344,-0.0011638761498034,0.02000446245074272,-0.17989927530288696,-0.609042227268219,-0.7724661231040955,-0.004228606820106506,0.0026578307151794434,0.014241695404052734,0.926732373384159,0.335237909500662,-0.03718175184241124,0.16553050995706003
1715270026856276200,3.366276123046875,-0.0380888432264328,0.0014694574056193233,0.06148292496800423,-0.18019966781139374,-0.6088195443153381,-0.7725716233253479,0.0032586753368377686,0.01690053939819336,0.017551541328430176,0.926721403292083,0.33514825517116986,-0.037280478416062385,0.16575117517832033
1715270026866266400,3.376266357421875,-0.037140652537345886,0.014444910921156406,0.06867726147174835,-0.18057569861412048,-0.6084054708480835,-0.7728099822998047,0.0015442520380020142,0.01973658800125122,0.021619856357574463,0.9267311199086584,0.33495629678710936,-0.03740709209636367,0.16605608947243278
1715270026876256300,3.38625634765625,-0.005220536142587662,0.009414199739694595,0.10320541262626648,-0.18112698197364807,-0.608268678188324,-0.7727885842323303,-0.000544235110282898,0.007240176200866699,0.009254097938537598,0.9266509465931221,0.33495533491667506,-0.037558223718349354,0.16647034258549542
1715270026886246100,3.39624609375,-0.023340150713920593,0.005650886334478855,0.13154511153697968,-0.1818707287311554,-0.6082452535629272,-0.7726324200630188,0.005006030201911926,0.0036156177520751953,-0.0029259920120239258,0.9265115578701208,0.3350500335951302,-0.037752659117717,0.1670111351622816
1715270026896236300,3.406236328125,-0.05117737501859665,0.00199569808319211,0.12339290231466293,-0.18262068927288055,-0.607958972454071,-0.7726808190345764,0.006152749061584473,0.0069457292556762695,0.0038210153579711914,0.9264201594983341,0.3349901807071417,-0.03796277179531238,0.1675895966722123
1715270026906227200,3.416227294921875,-0.022648794576525688,-0.00791525561362505,0.11022324115037918,-0.1833728849887848,-0.6076635718345642,-0.772735059261322,0.002952888607978821,0.003903687000274658,0.006774425506591797,0.9263427173094445,0.33492268446398143,-0.038200431979336286,0.16809774978176567
1715270026916217000,3.426217041015625,-0.026779092848300934,-0.015323903411626816,0.12133980542421341,-0.18428519368171692,-0.6075166463851929,-0.7726334929466248,0.003712594509124756,-0.00954890251159668,-0.0023603439331054688,0.9262242988289263,0.33496308402197306,-0.03850940952841589,0.1685984112336184
1715270026926207200,3.436207275390625,-0.05425124615430832,-0.017064811661839485,0.12786641716957092,-0.18522323668003082,-0.6071065068244934,-0.7727315425872803,0.0055509209632873535,-0.013163387775421143,-0.0035744905471801758,0.9261514724792637,0.3348514419512904,-0.03884234291733893,0.16914283708132222
1715270026936197400,3.446197265625,-0.09027955681085587,-0.023804208263754845,0.11000539362430573,-0.18601468205451965,-0.606306254863739,-0.7731696367263794,0.004435047507286072,0.007246136665344238,0.010428667068481445,0.9261775565339853,0.33448800653182226,-0.0391529399446838,0.16964664666405743
1715270026946188300,3.456188232421875,-0.10425998270511627,-0.03697140887379646,0.11766617745161057,-0.1869039386510849,-0.6053414940834045,-0.7737109661102295,0.00004474818706512451,-0.000386655330657959,0.016569912433624268,0.9262415255008479,0.3340362376661581,-0.039551488242177024,0.17009452479344334
1715270026956178200,3.46617822265625,-0.14071892201900482,-0.03615834563970566,0.11911094188690186,-0.18785646557807922,-0.6042342782020569,-0.7743454575538635,0.006124213337898254,-0.01043558120727539,0.0160142183303833,0.9263297533065122,0.33350797160494694,-0.03999635198095258,0.1705459088293983
1715270026966168000,3.47616796875,-0.17324960231781006,-0.03338732570409775,0.10663609206676483,-0.18859711289405823,-0.6028234958648682,-0.7752644419670105,0.011549323797225952,-0.00008183717727661133,0.017345190048217773,0.9265044073722348,0.3327719203182988,-0.040381018756041526,0.17094399925305975
1715270026976158200,3.486158203125,-0.17629306018352509,-0.028029579669237137,0.08919212222099304,-0.1892423778772354,-0.6013144850730896,-0.7762784957885742,0.006533563137054443,-0.003498256206512451,0.020403921604156494,0.9267175939886454,0.33196393845382827,-0.04075169486715932,0.17127124476828404
1715270026986148000,3.496148193359375,-0.1252429187297821,-0.020210538059473038,0.09248265624046326,-0.18981409072875977,-0.6001680493354797,-0.7770257592201233,0.00617450475692749,-0.017004311084747314,0.018038392066955566,0.9268635307403645,0.33136300547802905,-0.04105717834785472,0.1715721020853338
1715270026996139300,3.50613916015625,-0.14049085974693298,-0.0034235683269798756,0.08220232278108597,-0.19019562005996704,-0.5992707014083862,-0.777624785900116,0.007044315338134766,-0.005511462688446045,0.008627653121948242,0.9269687460441258,0.330888305994796,-0.04123755472661195,0.17187638825384766
1715270027006129200,3.516129150390625,-0.1623474657535553,-0.002265626098960638,0.07671628147363663,-0.1904355138540268,-0.59824538230896,-0.7783552408218384,-0.003854721784591675,0.0017334222793579102,0.009983718395233154,0.9271183789970343,0.3303187769442334,-0.041374901735844294,0.17213166650843764
1715270027016119300,3.526119384765625,-0.11294157058000565,-0.019481630995869637,0.10214360803365707,-0.1909187138080597,-0.5971744656562805,-0.7790588736534119,-0.008284851908683777,-0.008614838123321533,0.01387643814086914,0.927247528783702,0.3297551407174446,-0.04161849735004383,0.1724573723715208
1715270027026109200,3.536109130859375,-0.05861569195985794,-0.03038248047232628,0.12415862083435059,-0.19175902009010315,-0.596649706363678,-0.7792544960975647,-0.001966625452041626,-0.0070337653160095215,0.006381690502166748,0.9272184408495103,0.3295644901144974,-0.04195228101187373,0.17289661038972065
1715270027036099000,3.54609912109375,-0.012905992567539215,-0.05007842183113098,0.1350938379764557,-0.1926640272140503,-0.5965690612792969,-0.7790930271148682,-0.0028774142265319824,-0.0019569993019104004,-0.0015618205070495605,0.9270872592946446,0.32964715202330197,-0.042263840431989996,0.1733664171177427
1715270027046090200,3.55609033203125,0.010472939349710941,-0.06765875220298767,0.1330212950706482,-0.19367361068725586,-0.5966299772262573,-0.7787960767745972,-0.009970247745513916,-0.0043070316314697266,0.0030850768089294434,0.9269231656087171,0.3298261060203739,-0.04262276048736896,0.17381517468654173
1715270027056080100,3.566080078125,-0.009021133184432983,-0.05944209545850754,0.13298507034778595,-0.19482038915157318,-0.596714198589325,-0.7784453630447388,-0.007831647992134094,-0.009990572929382324,0.004168689250946045,0.9267426722762561,0.3300366979897052,-0.04304759216110032,0.17427198986343279
1715270027066070000,3.576070068359375,-0.03486205264925957,-0.047073844820261,0.12266725301742554,-0.1957928091287613,-0.5967467427253723,-0.7781764268875122,-0.0019916892051696777,-0.005044698715209961,0.005517184734344482,0.9265888614554608,0.33019476543761866,-0.043395921755218586,0.17470364839204722
1715270027076060400,3.586060302734375,-0.05041464418172836,-0.037031594663858414,0.10223974287509918,-0.1965721696615219,-0.5964099764823914,-0.7782381176948547,-0.0035621821880340576,-0.001063227653503418,0.006387591361999512,0.9265322668808137,0.3301083159416243,-0.04369710274906549,0.1750919570387588
1715270027086051300,3.59605126953125,-0.05248775705695152,-0.024004744365811348,0.09262952953577042,-0.1973903477191925,-0.59590744972229,-0.7784159779548645,-0.007092759013175964,-0.006982624530792236,-0.0007892847061157227,0.9265101032895808,0.32992777355540764,-0.04404179003013706,0.17546266680476363
1715270027096041200,3.606041259765625,-0.02611207589507103,-0.011096934787929058,0.08398198336362839,-0.19809432327747345,-0.5956474542617798,-0.7784361243247986,-0.00821983814239502,-0.0014290213584899902,-0.004766881465911865,0.9264467165941236,0.3298772331706455,-0.0443050391095324,0.17582571524563695
1715270027106031000,3.616031005859375,0.02257961593568325,-0.019772980362176895,0.06181023269891739,-0.19857455790042877,-0.5956353545188904,-0.7783230543136597,-0.013553202152252197,0.008599162101745605,-0.010464727878570557,0.9263620364917687,0.3299428769883904,-0.044454163012216774,0.17611118671522114
1715270027116021200,3.626021240234375,0.056602831929922104,-0.029584065079689026,0.02679898589849472,-0.19896137714385986,-0.5958842635154724,-0.7780337333679199,-0.015623047947883606,0.01812535524368286,-0.011562824249267578,0.9262522045008459,0.3301464160331201,-0.044570051950575146,0.17627808960465113
1715270027126011100,3.63601123046875,0.04858889803290367,-0.021828141063451767,-0.01288730651140213,-0.19928762316703796,-0.5963577628135681,-0.7775872349739075,-0.009010165929794312,0.02036893367767334,-0.013535082340240479,0.9261296549683137,0.3304685103287419,-0.04468712470046721,0.17628833446409115
1715270027136002300,3.646002197265625,-0.023955341428518295,-0.01078108325600624,-0.06253661960363388,-0.1992347091436386,-0.5966787338256836,-0.7773545384407043,-0.006285995244979858,0.005522608757019043,-0.010059952735900879,0.9261075425701063,0.33064238207568797,-0.04470294636679792,0.17607427669162085
1715270027145992200,3.6559921875,-0.08212943375110626,-0.0030453996732831,-0.07814361155033112,-0.19882506132125854,-0.596474826335907,-0.7776157855987549,0.00035393238067626953,-0.006140530109405518,-0.007006287574768066,0.9262477103969583,0.33045301344268596,-0.04464197863388833,0.17570728339468988
1715270027155982300,3.665982421875,-0.07165442407131195,-0.013114012777805328,-0.08416900783777237,-0.19841766357421875,-0.5960693359375,-0.7780307531356812,0.006111085414886475,-0.009307920932769775,-0.010787546634674072,0.9264365811913318,0.33014241320550325,-0.04461641107999126,0.17530179948948332
1715270027165972200,3.67597216796875,-0.034348007291555405,-0.02875582128763199,-0.08020775765180588,-0.1981545090675354,-0.5958837270736694,-0.7782399654388428,0.004383087158203125,-0.007097899913787842,-0.017414331436157227,0.9265737759644275,0.32997928834551254,-0.044650828912161905,0.17487450881104344
1715270027175963100,3.685963134765625,0.00046323565766215324,-0.025834068655967712,-0.05423101782798767,-0.19806315004825592,-0.595855176448822,-0.7782850861549377,0.000614359974861145,-0.0005194544792175293,-0.02254188060760498,0.92665331263782,0.32993389565593967,-0.04473343945745745,0.174517344690574
1715270027185953000,3.695953125,0.03191341087222099,-0.012923330068588257,-0.026807516813278198,-0.1981726884841919,-0.5958552956581116,-0.7782570719718933,-0.0020837336778640747,0.009353160858154297,-0.024675607681274414,0.9266778486342874,0.3299391496710206,-0.044851023661239275,0.17434698575296992
1715270027195943200,3.705943115234375,0.058030229061841965,-0.0048132059164345264,-0.011822176165878773,-0.19841055572032928,-0.5959457755088806,-0.7781271934509277,-0.006026789546012878,0.009321510791778564,-0.022180914878845215,0.9266494830017666,0.3300202465547117,-0.044978084566044574,0.17431160183118616
1715270027205933000,3.71593310546875,0.06678415089845657,0.00667194277048111,0.0030131624080240726,-0.19853566586971283,-0.5961169600486755,-0.777964174747467,-0.008571967482566833,0.0034655332565307617,-0.016377806663513184,0.9265986799412973,0.33013900783753947,-0.04501280571009203,0.17434784985517032
1715270027215923000,3.7259228515625,0.04689352959394455,0.020169641822576523,-0.010476548224687576,-0.19852948188781738,-0.5964330434799194,-0.777723491191864,-0.005251720547676086,0.002499818801879883,-0.011720418930053711,0.9265239064946152,0.33032857751345635,-0.04495875105653527,0.17440023691237777
1715270027225914000,3.7359140625,0.021157167851924896,0.04095854237675667,0.006699176970869303,-0.19823867082595825,-0.5967308878898621,-0.7775691151618958,-0.004703298211097717,-0.00477069616317749,-0.006839394569396973,0.9264757363893801,0.3304716928413667,-0.044765055322177255,0.1744342933528576
1715270027235904300,3.745904296875,0.003932641353458166,0.05100744962692261,0.011352252215147018,-0.19780048727989197,-0.596819281578064,-0.7776128649711609,-0.004042863845825195,-0.017392873764038086,-0.004598379135131836,0.9264677027548237,0.3304756520305334,-0.04449056278938282,0.17453985835425162
1715270027245894100,3.75589404296875,0.035796619951725006,0.0390370711684227,0.01923254504799843,-0.19743187725543976,-0.5968736410140991,-0.777664840221405,-0.002534613013267517,-0.01277613639831543,-0.004470109939575195,0.9264573512689624,0.33046900633593534,-0.044247201039474715,0.1746693149909228
1715270027255884300,3.76588427734375,0.06278456002473831,0.027449658140540123,0.02446991764008999,-0.19725455343723297,-0.5970795750617981,-0.7775517702102661,-0.004054710268974304,-0.004452526569366455,-0.009465992450714111,0.9263939662894725,0.3305779803266137,-0.04407176133333926,0.1748436558910606
1715270027265875200,3.775875244140625,0.091310054063797,0.016080357134342194,0.007335538975894451,-0.1971864104270935,-0.5973552465438843,-0.7773572206497192,-0.0042601823806762695,0.0008739233016967773,-0.008043110370635986,0.9263121350238794,0.3307409078766325,-0.04395284089757079,0.17499847148518283
1715270027275865000,3.785864990234375,0.10334780812263489,0.0042758965864777565,0.0017487599980086088,-0.1971980482339859,-0.597830057144165,-0.7769891619682312,-0.0026463717222213745,0.004354655742645264,-0.001987159252166748,0.9261956465298039,0.33102892680607965,-0.04387774503481459,0.1750893812749359
1715270027285855200,3.795855224609375,0.06762395054101944,0.007466097362339497,-0.001246097730472684,-0.19729118049144745,-0.5983289480209351,-0.7765814661979675,-0.0007832348346710205,0.005708038806915283,-0.0024559497833251953,0.9260712471060113,0.331340688577747,-0.04384770075575528,0.17516560441169948
1715270027295845400,3.805845458984375,0.315303236246109,-0.12034113705158234,0.022470418363809586,-0.19862204790115356,-0.5995869040489197,-0.7752708792686462,-0.001374945044517517,0.011146843433380127,0.004030704498291016,0.9257451649366268,0.3322462622618086,-0.04446340449522551,0.1750185072108213
1715270027305835300,3.815835205078125,0.2514382600784302,-0.1622219979763031,-0.08451682329177856,-0.19930897653102875,-0.6018825173377991,-0.7733133435249329,-0.004197552800178528,0.03271430730819702,0.03899943828582764,0.9252650366584286,0.33368731681773744,-0.04467787252191785,0.17476126525165903
1715270027315826200,3.825826171875,0.2051866054534912,-0.12203995883464813,0.0368221253156662,-0.2002469301223755,-0.6037373542785645,-0.7716233134269714,-0.03653900325298309,0.0655750036239624,0.03322005271911621,0.924872399014671,0.3348946977890362,-0.04509872721974398,0.1744216940487473
1715270027325816000,3.835816162109375,0.12264741957187653,-0.09271003305912018,0.053464751690626144,-0.2013915628194809,-0.6048409938812256,-0.7704601883888245,0.02568654716014862,0.030210137367248535,0.03780949115753174,0.9245357472721092,0.33570237869072506,-0.04553918016628519,0.17453908004106156
1715270027335806200,3.84580615234375,0.062033332884311676,-0.023874515667557716,-0.0317702516913414,-0.20191359519958496,-0.6054365038871765,-0.7698555588722229,0.032388389110565186,0.0029126405715942383,0.044605374336242676,0.9243707969843423,0.3361240838014264,-0.04574720660656725,0.17454689958820674
1715270027345796000,3.855796142578125,-0.031089790165424347,0.04017291218042374,-0.07918570190668106,-0.20148354768753052,-0.6055585145950317,-0.76987224817276,-0.014809831976890564,-0.019044816493988037,0.02365654706954956,0.9244215689317504,0.3361316872103403,-0.0455999910998241,0.1743012153080109
1715270027355786000,3.865785888671875,-0.14068765938282013,0.0805637389421463,-0.06666165590286255,-0.2006010264158249,-0.6049420833587646,-0.7705870270729065,-0.016760483384132385,-0.0487293004989624,0.0076934099197387695,0.9246639523493847,0.3356405538232507,-0.045297887852252555,0.17404090724110516
1715270027365777200,3.875777099609375,-0.25591006875038147,0.15870967507362366,-0.11298055201768875,-0.19915032386779785,-0.6035148501396179,-0.7720810174942017,0.010734736919403076,-0.06176847219467163,-0.0077956318855285645,0.9251130484066753,0.3345962676455236,-0.04477524566228072,0.17380049580639023
1715270027375767300,3.885767333984375,-0.3547343909740448,0.19247110188007355,-0.1881304234266281,-0.19684870541095734,-0.601353108882904,-0.7743546366691589,0.011057630181312561,-0.056468665599823,-0.02160477638244629,0.9258116202501587,0.33300184401346355,-0.04395984122511912,0.17334985709701578
1715270027385757200,3.895757080078125,-0.14878708124160767,0.0783168375492096,-0.1260616034269333,-0.19477936625480652,-0.5995987057685852,-0.7762359976768494,-0.017485707998275757,-0.040278613567352295,-0.023385465145111084,0.9264133062742617,0.33168083304150175,-0.04324137134402978,0.17284780050980042
1715270027395747000,3.9057470703125,0.006698387674987316,-0.03832961991429329,-0.11152180284261703,-0.19429904222488403,-0.5992659330368042,-0.7766132950782776,-0.039236798882484436,0.035529911518096924,-0.011945545673370361,0.9266037463926374,0.3314023385038991,-0.043195452948365326,0.17237189914917755
1715270027405738200,3.91573828125,-0.052718229591846466,0.011496791616082191,-0.07352422177791595,-0.19387395679950714,-0.5993666052818298,-0.776641845703125,0.006740108132362366,0.07121407985687256,-0.022537171840667725,0.9267018773026519,0.3313882575439695,-0.04313803401570601,0.17188562617114345
1715270027415728000,3.92572802734375,-0.13649754226207733,0.07842336595058441,-0.04502200707793236,-0.19307923316955566,-0.5988052487373352,-0.7772725820541382,0.02741450071334839,0.02533411979675293,0.003468930721282959,0.9269122452843023,0.33094839749044414,-0.042858742330479066,0.1716682201123927
1715270027425718300,3.93571826171875,-0.07657493650913239,0.07428880035877228,-0.06000315397977829,-0.19225750863552094,-0.5981222987174988,-0.7780018448829651,-0.01228661835193634,0.010048449039459229,0.025194287300109863,0.9271332026006615,0.33043739256149396,-0.042546595962732636,0.1715374707939829
1715270027435708200,3.945708251953125,0.029724877327680588,0.07298971712589264,-0.04734887555241585,-0.19142907857894897,-0.5981857180595398,-0.7781572937965393,-0.0281144380569458,-0.002064645290374756,0.017445683479309082,0.9272016302575186,0.3303692455662107,-0.04216047127781025,0.17139392397543557
1715270027445699300,3.95569921875,0.05811092630028725,0.08239173889160156,-0.043874651193618774,-0.19052426517009735,-0.5988275408744812,-0.7778856158256531,-0.027050867676734924,0.0016290545463562012,0.002662956714630127,0.9271447049980488,0.33063860795811517,-0.04165694838395265,0.17130519549661793
1715270027455689200,3.965689208984375,-0.0010943412780761719,0.08680033683776855,-0.024437835440039635,-0.18959981203079224,-0.5992184281349182,-0.7778105735778809,-0.018438592553138733,0.005697190761566162,-0.0013641715049743652,0.9271321846986496,0.3307586277535943,-0.04115148028006288,0.1712639998690072
1715270027465679000,3.97567919921875,-0.02933380752801895,0.08137761056423187,0.002619547303766012,-0.18891814351081848,-0.5991410613059998,-0.7780359983444214,-0.002259284257888794,-0.0027266740798950195,0.0016383528709411621,0.9271753109411044,0.33063539736523306,-0.04077056911421084,0.17135976688760934
1715270027475669200,3.985669189453125,-0.030150867998600006,0.06271470338106155,0.024316586554050446,-0.18864470720291138,-0.5987465977668762,-0.7784058451652527,0.012146249413490295,-0.005440413951873779,-0.0021879076957702637,0.9272347648550731,0.33037775458591884,-0.04059071075859791,0.1715770399146686
1715270027485659100,3.9956591796875,-0.053118448704481125,0.047925371676683426,0.03131351247429848,-0.18841522932052612,-0.598096489906311,-0.7789610028266907,0.012755990028381348,-0.003649115562438965,-0.006591856479644775,0.9273402594108122,0.3299744124996259,-0.04045210079865663,0.17181560675034657
1715270027495650300,4.005650390625,-0.027704967185854912,0.03457867354154587,0.041531261056661606,-0.18823687732219696,-0.5976244211196899,-0.7793664336204529,0.006107926368713379,-0.0007185935974121094,-0.0036535263061523438,0.927407894025191,0.32968243996773355,-0.040327092251681185,0.17204064111765127
1715270027505640200,4.01564013671875,0.007424472365528345,0.029133308678865433,0.03612744063138962,-0.18833975493907928,-0.5975152850151062,-0.7794252038002014,0.004166096448898315,0.004253506660461426,0.0013948678970336914,0.9273753647611886,0.3296412914654448,-0.040299004538748545,0.17230114776033378
1715270027515630300,4.02563037109375,0.01282243337482214,0.02587786130607128,0.015347858890891075,-0.18845154345035553,-0.5975974202156067,-0.7793352603912354,0.0007531195878982544,0.0030385851860046387,0.0009233951568603516,0.9273158642096458,0.3297116758999285,-0.040281350740237004,0.17249081874421668
1715270027525620200,4.0356201171875,0.014911683276295662,0.02501899190247059,0.028219515457749367,-0.1885916292667389,-0.5976505875587463,-0.7792605757713318,-0.002112776041030884,0.002466142177581787,0.0057010650634765625,0.9272647387386725,0.32976727807649375,-0.04028945513433402,0.17265758098167433
1715270027535611100,4.045611083984375,0.05178501456975937,0.009226713329553604,0.05878487974405289,-0.1889551877975464,-0.5977251529693604,-0.7791152596473694,0.0006463974714279175,0.0019304156303405762,0.00836336612701416,0.927174241758591,0.32986722179447964,-0.04037303322465177,0.17293247548425494
1715270027545601000,4.05560107421875,0.08905526250600815,-0.006555978208780289,0.06603214144706726,-0.18934160470962524,-0.5982210636138916,-0.7786406874656677,0.004740729928016663,0.013366878032684326,0.008132994174957275,0.9269898497726478,0.3302214710797163,-0.04041589392090486,0.17323428331226354
1715270027555591200,4.065591064453125,0.10542438179254532,-0.00030101207084953785,0.07441497594118118,-0.18959318101406097,-0.598910391330719,-0.7780493497848511,-0.0006229430437088013,0.011599600315093994,0.00610727071762085,0.9267731632884286,0.3306748023327039,-0.040367156818896965,0.1735402750777839
1715270027565581000,4.0755810546875,0.10532919317483902,-0.0027242223732173443,0.07500606030225754,-0.1898338943719864,-0.5995937585830688,-0.7774640917778015,-0.00398331880569458,0.005385935306549072,0.007581949234008789,0.9265507496637851,0.33112522495817454,-0.04029939282989914,0.17388440415855488
1715270027575571200,4.0855712890625,0.07922755181789398,-0.008658277802169323,0.06662056595087051,-0.19018259644508362,-0.6001442670822144,-0.776953935623169,-0.0038634836673736572,-0.00619429349899292,0.00864344835281372,0.9263503715606304,0.3315095149123932,-0.040304843653871575,0.17421789416607308
1715270027585562000,4.09556201171875,0.04261532425880432,-0.013613620772957802,0.03962317109107971,-0.19052211940288544,-0.6004587411880493,-0.7766277194023132,-0.0017539411783218384,-0.013509213924407959,0.013825714588165283,0.9262158090987106,0.3317486503276521,-0.04036039149500964,0.17446530288789935
1715270027595552300,4.10555224609375,-0.0005454635247588158,-0.0053650131449103355,0.020800482481718063,-0.19073884189128876,-0.6005092263221741,-0.7765354514122009,0.001117810606956482,-0.019028127193450928,0.02064567804336548,0.926168573696785,0.3318102685399624,-0.04042534865952671,0.1745839060146796
1715270027605542100,4.115542236328125,-0.045329395681619644,0.012604666873812675,0.023771371692419052,-0.1908513456583023,-0.6002349853515625,-0.776719868183136,0.0008488297462463379,-0.021240293979644775,0.01750361919403076,0.9261990197784779,0.33166521846483893,-0.04047538825916938,0.17468640832923854
1715270027615532000,4.125531982421875,-0.015558447688817978,0.010357757098972797,0.027040932327508926,-0.19089801609516144,-0.5999244451522827,-0.7769482731819153,0.00014784932136535645,-0.002538442611694336,0.01727426052093506,0.9262344864264087,0.33149217582878343,-0.040482049028151224,0.1748250657706803
1715270027625523200,4.135523193359375,0.03215208277106285,0.013880054466426373,0.009863211773335934,-0.19088028371334076,-0.5998796224594116,-0.7769871950149536,-0.00429496169090271,0.011500656604766846,0.014002025127410889,0.9262241052394213,0.3314682121093772,-0.04043783301379014,0.17493576785804277
1715270027635513300,4.145513427734375,0.034645333886146545,0.016762394458055496,-0.026852723211050034,-0.19073480367660522,-0.6000936627388,-0.7768577337265015,-0.008026257157325745,0.011287450790405273,0.007921576499938965,0.9261881382964211,0.33157802092030064,-0.04033809458904275,0.17494143598741035
1715270027645503200,4.155503173828125,0.008243180811405182,0.019582947716116905,-0.0483967661857605,-0.19043000042438507,-0.6003130078315735,-0.7767630219459534,-0.0046842098236083984,-0.0043013691902160645,0.012374043464660645,0.926187895801036,0.3316655540342004,-0.040204944950201243,0.17480761859712868
1715270027655493400,4.165493408203125,0.019260145723819733,0.013037163764238358,-0.04654134064912796,-0.1900651454925537,-0.6005918383598328,-0.7766367793083191,0.0038163214921951294,-0.015069842338562012,0.014277279376983643,0.9261916715876468,0.3317784061207306,-0.04005852461914955,0.17460660026754143
1715270027665483300,4.175483154296875,0.04958076775074005,0.009173981845378876,-0.050647005438804626,-0.1897241622209549,-0.6011478304862976,-0.7762899994850159,0.007473111152648926,-0.004183709621429443,0.007857441902160645,0.9261385456009902,0.33205862761773797,-0.03990087613723181,0.17439192125897152
1715270027675474200,4.18547412109375,0.05461094528436661,0.004444208461791277,-0.057732079178094864,-0.18937548995018005,-0.6019689440727234,-0.7757385969161987,-0.0005964785814285278,0.007822155952453613,0.002240121364593506,0.9260366073754104,0.33249461833711536,-0.039724568559085016,0.17414218224747674
1715270027685464000,4.195464111328125,0.044176895171403885,0.0005144479218870401,-0.05759192630648613,-0.18902060389518738,-0.6027248501777649,-0.775238037109375,-0.0055290162563323975,0.007738828659057617,0.004715025424957275,0.9259521872482791,0.3328904760133825,-0.039559080994684886,0.17387245156906767
1715270027695454700,4.205454833984375,0.024909988045692444,-0.012516132555902004,-0.04333602637052536,-0.18883854150772095,-0.6031745076179504,-0.7749326229095459,-0.002323627471923828,-0.0026605725288391113,0.010833561420440674,0.9259134671328773,0.33312653271139636,-0.03950186830516131,0.17363960702033526
1715270027705444900,4.21544482421875,-0.003125107381492853,-0.016415266320109367,-0.026843203231692314,-0.18889465928077698,-0.6032521724700928,-0.7748584747314453,0.003332465887069702,-0.006672203540802002,0.013750195503234863,0.9259212936279662,0.3331733075473049,-0.039576633654525406,0.17349073844144314
1715270027715435800,4.225435791015625,-0.021297452971339226,-0.012303878553211689,-0.01977384276688099,-0.18905241787433624,-0.6031009554862976,-0.7749377489089966,0.00493977963924408,0.00018030405044555664,0.016743838787078857,0.925960802714554,0.33309808251931244,-0.039708850336629936,0.17339448245012112
1715270027725425700,4.23542578125,-0.02503136545419693,-0.017244309186935425,-0.012800089083611965,-0.18915055692195892,-0.6030150055885315,-0.7749806642532349,0.0008570104837417603,-0.0012025833129882812,0.01645106077194214,0.9259924840902007,0.33305411343925784,-0.0398072911240514,0.17328722436892519
1715270027735415800,4.245415771484375,-0.0063034845516085625,-0.024182375520467758,-0.005969346966594458,-0.18924790620803833,-0.603100061416626,-0.7748907208442688,0.0016257762908935547,-0.004291355609893799,0.012714266777038574,0.9259871370690156,0.3331122668395347,-0.03988568135230958,0.17318583315248176
1715270027745406000,4.255406005859375,0.002242013579234481,-0.024543767794966698,-0.0035622487775981426,-0.18934224545955658,-0.6031558513641357,-0.7748242616653442,0.00448194146156311,-0.0037473440170288086,0.007948100566864014,0.9259821718056511,0.33315394277583643,-0.0399540162865796,0.1731164149258097
1715270027755396900,4.26539697265625,0.0031107368413358927,-0.019542617723345757,0.006121271289885044,-0.18953019380569458,-0.603114664554596,-0.7748103141784668,0.0014503002166748047,-0.002445697784423828,0.004668831825256348,0.9259833178366625,0.3331510020814561,-0.04006547740613467,0.17309007677853266
1715270027765386800,4.27538671875,0.009600114077329636,-0.01571352407336235,0.03029884584248066,-0.18985579907894135,-0.6030722856521606,-0.7747635841369629,-0.0020692944526672363,-0.003281533718109131,0.0027300119400024414,0.9259570616342768,0.33316830020725313,-0.04021301667836169,0.17316284041797386
1715270027775377000,4.285376953125,0.018512383103370667,-0.026265500113368034,0.03667232394218445,-0.19024240970611572,-0.6032049655914307,-0.7745654582977295,-0.0017895102500915527,0.008615612983703613,0.002196192741394043,0.925881585877194,0.3332993895135861,-0.040358083972277636,0.17328085030266405
1715270027785366800,4.29536669921875,0.033044882118701935,-0.029698047786951065,0.03325382247567177,-0.1906256526708603,-0.6034718155860901,-0.774263322353363,-0.003069475293159485,0.009752273559570312,0.0001850128173828125,0.9257804516256323,0.3335096505198484,-0.04049245110705221,0.17338540287717974
1715270027795356700,4.305356689453125,0.0335434228181839,-0.02761918492615223,0.015963783487677574,-0.19092483818531036,-0.6037978529930115,-0.7739353775978088,0.0024176985025405884,0.0003432035446166992,-0.0006464719772338867,0.925681367669043,0.3337430138838588,-0.04059448036705299,0.17344143123765243
1715270027805347800,4.315347900390625,0.0076255411840975285,-0.022944007068872452,0.00830419734120369,-0.19119977951049805,-0.604035496711731,-0.7736819982528687,0.0072702765464782715,-0.005003929138183594,0.0010685920715332031,0.9256105713432713,0.33391885439212676,-0.04070860726733072,0.1734540389069088
1715270027815338000,4.325337890625,-0.01686142571270466,-0.02052345871925354,0.006891657132655382,-0.19137926399707794,-0.6040871143341064,-0.7735973000526428,0.0068699270486831665,-0.0063408613204956055,0.006339669227600098,0.9255903010559844,0.3339708933935109,-0.04080192094342863,0.173439564382173
1715270027825327900,4.335327880859375,-0.007673893589526415,-0.022488072514533997,0.021165799349546432,-0.1915392279624939,-0.6040218472480774,-0.7736086845397949,0.005000457167625427,-0.0013248920440673828,0.008304178714752197,0.9255920277600924,0.3339516982721918,-0.04088919301913338,0.17344694092837287
1715270027835317800,4.34531787109375,0.009435584768652916,-0.023393547162413597,0.009014596231281757,-0.1917732208967209,-0.6040595173835754,-0.7735213041305542,0.0017707198858261108,0.006189584732055664,0.007667481899261475,0.9255630116994363,0.334003935305869,-0.04099666405789687,0.17347584805007643
1715270027845308700,4.35530859375,-0.01505281962454319,-0.015502868220210075,-0.0013226636219769716,-0.19194450974464417,-0.6040632128715515,-0.7734759449958801,-0.003978416323661804,0.0035535097122192383,0.005302786827087402,0.9255556214792651,0.33402583967408817,-0.041094672876026334,0.17345019107459653
1715270027855298800,4.365298828125,-0.038548290729522705,-0.009831134229898453,0.005100614856928587,-0.19207006692886353,-0.6037745475769043,-0.7736701369285583,-0.00249481201171875,-0.00012260675430297852,0.004962921142578125,0.9256073710597656,0.33386893128381945,-0.04118834988009773,0.1734536741419247
1715270027865288700,4.375288818359375,-0.052638761699199677,-0.0031636436469852924,-0.0014947038143873215,-0.19215725362300873,-0.6033534407615662,-0.7739769220352173,0.0021852701902389526,0.0026910901069641113,0.0035912394523620605,0.9256890759047142,0.33362843755207683,-0.041274612421564744,0.17345995135073206
1715270027875278600,4.385278564453125,-0.08308374881744385,0.006333188619464636,0.00523883244022727,-0.19209279119968414,-0.6028233170509338,-0.7744058966636658,0.0007627606391906738,0.0007572174072265625,0.002250194549560547,0.9258084712840711,0.3333034552713644,-0.04130219730146498,0.1734409671979693
1715270027885269800,4.395269775390625,-0.04789412394165993,0.004756064619868994,0.023492537438869476,-0.1920139491558075,-0.6023368835449219,-0.7748038172721863,0.0004398077726364136,-0.0043373703956604,0.00302964448928833,0.9259082359487661,0.33300555792459646,-0.04129627547307796,0.17348182672667528
1715270027895260000,4.405260009765625,-0.01813090220093727,-0.0011255266144871712,0.029374130070209503,-0.19206637144088745,-0.6021970510482788,-0.7748995423316956,-0.00039280951023101807,0.00003933906555175781,-0.000521540641784668,0.9259186192619646,0.33293221962886654,-0.04130812222189817,0.17356452735890815
1715270027905249800,4.415249755859375,-0.05583684518933296,0.005691366735845804,0.04022098705172539,-0.19219833612442017,-0.6019569635391235,-0.7750533819198608,-0.0029006004333496094,0.011197566986083984,-0.007066309452056885,0.9259327115929133,0.33281165189250284,-0.04134875176094144,0.17371088856638767
1715270027915240000,4.425239990234375,-0.06635366380214691,0.005695095285773277,0.04999611899256706,-0.1924113631248474,-0.6014155149459839,-0.7754207253456116,-0.004289746284484863,0.008977711200714111,0.0008999109268188477,0.9259938681965918,0.3325239493531358,-0.04144224190137716,0.17391355598898878
1715270027925229800,4.435229736328125,-0.06721445173025131,0.011903456412255764,0.03836096450686455,-0.19270502030849457,-0.6008363962173462,-0.77579665184021,-0.0029432326555252075,-0.002908170223236084,0.003930926322937012,0.9260517629675329,0.3322250852305263,-0.041571232735596986,0.1741451734335414
1715270027935220700,4.445220703125,-0.05595354363322258,0.013435039669275284,0.0292886421084404,-0.19285699725151062,-0.6003426909446716,-0.7761410474777222,0.0008555799722671509,-0.00601118803024292,-0.0026217103004455566,0.9261145784990504,0.33195678649236543,-0.041643412977086264,0.17430559698553394
1715270027945210600,4.455210693359375,-0.033769942820072174,0.009891703724861145,0.0371972993016243,-0.1929250955581665,-0.5999868512153625,-0.7763991951942444,-0.0017771422863006592,-0.0064432621002197266,-0.00520169734954834,0.9261551935696496,0.3317602099373907,-0.04166003373974295,0.17446000722032817
1715270027955201000,4.465200927734375,-0.022444317117333412,-0.0002104644663631916,0.04098005220293999,-0.1931108981370926,-0.5997412204742432,-0.7765427827835083,-0.001911759376525879,0.0011083483695983887,-0.003349125385284424,0.92616080933361,0.3316446035179146,-0.04171896997631597,0.17463564883753585
1715270027965191000,4.47519091796875,-0.015407288447022438,0.0012598666362464428,0.03761874511837959,-0.19331175088882446,-0.5996079444885254,-0.7765957117080688,-0.0029163658618927,0.004164159297943115,0.001037299633026123,0.9261440497425402,0.3315972342992723,-0.041778062406401195,0.1748005219549023
1715270027975181800,4.485181884765625,-0.006421781610697508,-0.004995898809283972,0.020703677088022232,-0.1935146301984787,-0.5994787216186523,-0.7766449451446533,-0.0059788525104522705,0.005804955959320068,0.0012391209602355957,0.9261312680510753,0.33155137763403153,-0.04184739293825859,0.17493860704106123
1715270027985171700,4.495171630859375,-0.010020192712545395,-0.010907850228250027,-0.007857860997319221,-0.19363504648208618,-0.5993202924728394,-0.7767372131347656,-0.004973411560058594,0.0029761791229248047,0.004108548164367676,0.9261524106069505,0.33147271291362784,-0.041919215258081566,0.17495842410875884
1715270027995161900,4.505161865234375,-0.027346184477210045,-0.008953356184065342,-0.017407691106200218,-0.19369129836559296,-0.5991608500480652,-0.776846170425415,-0.002490997314453125,-0.005819737911224365,0.00627744197845459,0.9261956990138883,0.33138142109571583,-0.04199114265316797,0.17488499013234432
1715270028005151700,4.51515185546875,-0.046670082956552505,-0.009341378696262836,-0.020112795755267143,-0.1936660259962082,-0.5989537239074707,-0.7770121693611145,0.0034956783056259155,-0.007354319095611572,0.009937644004821777,0.9262622799844038,0.3312498978650885,-0.04204054861111248,0.17476967484015504
1715270028015143000,4.525142822265625,-0.040882766246795654,-0.013273801654577255,-0.025854038074612617,-0.19357158243656158,-0.5987120270729065,-0.7772219777107239,0.0019363760948181152,-0.0010653138160705566,0.007370352745056152,0.9263455418901398,0.33108818786267885,-0.04206677508575257,0.17462846650113095
1715270028025132800,4.5351328125,-0.03837151080369949,-0.014187000691890717,-0.026571959257125854,-0.1934967190027237,-0.5984912514686584,-0.7774106860160828,-0.0034332722425460815,0.0050920844078063965,0.003057718276977539,0.9264268218946119,0.33094043345230806,-0.04210799682799099,0.17446760060814898
1715270028035123000,4.545123046875,-0.035245493054389954,-0.014516167342662811,-0.011858262121677399,-0.1935015320777893,-0.5982261300086975,-0.7776135206222534,-0.0021162033081054688,0.006703853607177734,-0.00031006336212158203,0.9265053363231697,0.33077766297646255,-0.04218284202051362,0.17434109266617476
1715270028045112800,4.55511279296875,-0.010066423565149307,-0.019277898594737053,0.008721647784113884,-0.1936706304550171,-0.5980150699615479,-0.7777337431907654,0.0022338032722473145,0.0038377046585083008,-0.0020513534545898438,0.9265435581521114,0.3306713890689313,-0.04230330355282125,0.1743104100457742
1715270028055102700,4.565102783203125,0.005117055959999561,-0.01979881338775158,0.02259565144777298,-0.1940084993839264,-0.5979428887367249,-0.7777049541473389,0.0035482197999954224,0.004269123077392578,-0.002354741096496582,0.9265243676217584,0.330672434596708,-0.042464707345109126,0.17437093777449658
1715270028065093600,4.57509375,0.0025065189693123102,-0.01985207572579384,0.01702878065407276,-0.19434943795204163,-0.5979467034339905,-0.7776169776916504,-0.0029009878635406494,0.009552419185638428,0.0008225440979003906,0.9264854902497092,0.33071992733824834,-0.042612857707576196,0.1744513193355018
1715270028075083800,4.585083740234375,-0.013546483591198921,-0.0225173681974411,0.025114137679338455,-0.19464123249053955,-0.5979292988777161,-0.7775573134422302,-0.007064759731292725,0.004545390605926514,0.0054168701171875,0.9264611836326953,0.3307471934568127,-0.04275075203028794,0.17449492177696907
1715270028085073700,4.59507373046875,0.0018566546496003866,-0.027233293280005455,0.03686566650867462,-0.1949845552444458,-0.5979335904121399,-0.7774679660797119,0.0030289143323898315,-0.005933046340942383,0.006975531578063965,0.9264200291366559,0.3307958488487374,-0.042896562947051436,0.1745851381898092
1715270028095063800,4.605063720703125,0.020132863894104958,-0.034630488604307175,0.026013020426034927,-0.19538825750350952,-0.598028838634491,-0.7772933840751648,0.011351928114891052,-0.005975127220153809,0.00567173957824707,0.9263577516937537,0.3309055406163312,-0.04306791289065365,0.17466564858556033
1715270028105055000,4.615054931640625,0.009844699874520302,-0.033074937760829926,0.013526656664907932,-0.1957710087299347,-0.5981005430221558,-0.7771418690681458,0.006531447172164917,-0.001157999038696289,0.005123496055603027,0.926309663592769,0.3309967587708891,-0.043245931262573756,0.1747037629961608
1715270028115044900,4.625044921875,0.007877156138420105,-0.034765247255563736,0.02960256300866604,-0.19617526233196259,-0.5980443358421326,-0.777083158493042,0.0019155442714691162,-0.005746006965637207,0.009169399738311768,0.9262836727604163,0.33101533604727873,-0.043442571651819945,0.17475773023245394
1715270028125034800,4.63503466796875,0.008501880802214146,-0.031133759766817093,0.017757819965481758,-0.1965063363313675,-0.5980278253555298,-0.777012288570404,0.009921789169311523,0.0011191964149475098,0.012104511260986328,0.9262538387810315,0.33104871316389134,-0.043596100278163075,0.17481448214703194
1715270028135025000,4.64502490234375,-0.007731150835752487,-0.029990464448928833,-0.012930051423609257,-0.19667938351631165,-0.5979915261268616,-0.7769964337348938,0.00644800066947937,0.0028833746910095215,0.007282137870788574,0.9262590627015324,0.3310459395479747,-0.04370774162228977,0.1747642675724655
1715270028145015800,4.655015869140625,-0.019073819741606712,-0.02563326619565487,-0.037597715854644775,-0.19678539037704468,-0.597878098487854,-0.777056872844696,-0.0015331506729125977,-0.012870311737060547,0.00738835334777832,0.9263053735389433,0.3309839516186851,-0.043831373099675136,0.1746050272089818
1715270028155006000,4.665005859375,-0.007710911799222231,-0.025491852313280106,-0.02168000116944313,-0.1968587338924408,-0.5977869629859924,-0.777108371257782,0.0026142895221710205,-0.007346153259277344,0.006066620349884033,0.9263543500291836,0.330929924224893,-0.04394535779847797,0.17441878763962515
1715270028164995800,4.674995849609375,0.033032096922397614,-0.03371622785925865,0.011077680625021458,-0.1970004290342331,-0.5979857444763184,-0.7769194841384888,0.004449695348739624,0.009515225887298584,0.004565417766571045,0.9263197441906783,0.33106136227076954,-0.04402986980815082,0.17433164884343155
1715270028174986000,4.684986083984375,0.040923845022916794,-0.04068758338689804,0.00901026837527752,-0.19722150266170502,-0.5983662605285645,-0.7765703797340393,-0.002943366765975952,0.020073294639587402,0.004658818244934082,0.9262292930244661,0.3313138167087175,-0.044113175606391,0.17431158610379688
1715270028184977000,4.694976806640625,0.003932374995201826,-0.037409499287605286,-0.008202873170375824,-0.19743289053440094,-0.5985884070396423,-0.7763453722000122,-0.01422184705734253,0.01876962184906006,0.006081819534301758,0.9261835413612121,0.33146809440366704,-0.044228969436836796,0.17423185593733076
1715270028194966800,4.704966796875,-0.05044005438685417,-0.0280426274985075,-0.0020664178300648928,-0.1976247876882553,-0.5985146164894104,-0.7763534784317017,-0.010367810726165771,0.003559112548828125,0.010606467723846436,0.9262032548803175,0.33144321816172617,-0.04436950849079177,0.17413907033974196
1715270028204956700,4.714956787109375,-0.08153261989355087,-0.01853514276444912,-0.0010863746283575892,-0.19769872725009918,-0.5980448722839355,-0.7766965627670288,0.0025845319032669067,-0.012886524200439453,0.006753385066986084,0.9263100331654573,0.33116913045728047,-0.04448294226877153,0.17406322782747724
1715270028214946800,4.72494677734375,-0.06318104267120361,-0.017261087894439697,-0.010678548365831375,-0.19772906601428986,-0.5975041389465332,-0.7771049737930298,0.006002306938171387,-0.009398996829986572,0.0051934123039245605,0.9264363025706763,0.33084705757340915,-0.044584186915608864,0.173978034292324
1715270028224938000,4.73493798828125,-0.01791508123278618,-0.027012784034013748,-0.005806028377264738,-0.19784915447235107,-0.5973208546638489,-0.7772152423858643,-0.004635035991668701,0.0044252872467041016,-0.0007540583610534668,0.9264846151205205,0.3307479913592333,-0.04470049962131645,0.17387937358442518
1715270028234927900,4.744927978515625,0.03996632993221283,-0.028569668531417847,0.003410639241337776,-0.1980208456516266,-0.5974975228309631,-0.7770357728004456,-0.0069352686405181885,0.010095059871673584,-0.005358576774597168,0.9264471430071548,0.33087117952060885,-0.04479270897846252,0.17382096013369747
1715270028244917800,4.754917724609375,0.09114525467157364,-0.027480168268084526,-0.01356315053999424,-0.1981797218322754,-0.5980052947998047,-0.7766044735908508,-0.0038772225379943848,0.012296617031097412,-0.0062323808670043945,0.9263401060161325,0.3311902728905331,-0.04484164750275324,0.17377093413103273
1715270028254908000,4.764907958984375,0.0869680866599083,-0.027762729674577713,-0.026128211989998817,-0.19830341637134552,-0.5986340641975403,-0.7760882377624512,-0.005004718899726868,0.0013898015022277832,-0.004825949668884277,0.926221889188068,0.33157416386526667,-0.04488256656285944,0.17365797022728324
1715270028264897800,4.774897705078125,0.06731028109788895,-0.02238101325929165,-0.021519144997000694,-0.19855676591396332,-0.5991449952125549,-0.7756291627883911,-0.0027830004692077637,-0.010275840759277344,0.005167186260223389,0.9261156215820454,0.3319047831125238,-0.04499609273969213,0.173564225183709
1715270028274888700,4.784888671875,0.052328404039144516,-0.021762361750006676,-0.045165352523326874,-0.1986677646636963,-0.5996804237365723,-0.7751867771148682,0.0030958056449890137,-0.0036368966102600098,0.012873053550720215,0.9260249685688555,0.3322298794235871,-0.04505446755176873,0.17341101353978233
1715270028284878800,4.79487890625,0.019321292638778687,-0.017903175204992294,-0.058531422168016434,-0.19845399260520935,-0.6001731157302856,-0.774860143661499,0.00041009485721588135,-0.0012978911399841309,0.012378513813018799,0.925991432013404,0.33248320977850954,-0.044998302590281286,0.1731183760824162
1715270028294868700,4.80486865234375,0.004315710626542568,-0.023611394688487053,-0.04910409823060036,-0.19821374118328094,-0.6004287004470825,-0.7747235894203186,-0.0024393945932388306,-0.00880897045135498,0.010090529918670654,0.9260084974540014,0.33259223716801883,-0.044951093411283755,0.17282957713460323
1715270028304859000,4.81485888671875,-0.013298490084707737,-0.024236705154180527,-0.04700033739209175,-0.19815392792224884,-0.6004200577735901,-0.7747456431388855,0.002429381012916565,-0.002821028232574463,0.008922338485717773,0.9260618810333072,0.3325674227605215,-0.04501224160465414,0.17257505804757722
1715270028314849800,4.824849853515625,-0.015496662817895412,-0.021349571645259857,-0.028238633647561073,-0.1981791853904724,-0.6002361178398132,-0.7748817205429077,-0.00010883808135986328,0.00013834238052368164,0.0022682547569274902,0.9261339825673461,0.3324515798204793,-0.04511201501019865,0.17238547778259256
1715270028324840000,4.83483984375,-0.0024719410575926304,-0.021559162065386772,-0.027349336072802544,-0.19820773601531982,-0.6000718474388123,-0.775001585483551,-0.002613261342048645,0.0058182477951049805,-0.0010756254196166992,0.9261923745991641,0.33235032459569447,-0.04519353382153363,0.1722458348906173
1715270028334829800,4.844829833984375,0.0029654349200427532,-0.0203546155244112,-0.029576538130640984,-0.19824501872062683,-0.6000719666481018,-0.774992048740387,-0.0030795037746429443,0.009770333766937256,-0.0035113096237182617,0.9262183538836184,0.33234739486866705,-0.04526795457135496,0.17209252493247712
1715270028344819700,4.85481982421875,-0.0076909372583031654,-0.02015727385878563,-0.017892785370349884,-0.19827017188072205,-0.6002048254013062,-0.7748826742172241,-0.0031154006719589233,0.006363213062286377,-0.002903461456298828,0.9262153643762312,0.33242267587167207,-0.04531916143242487,0.17194910379220057
1715270028354810600,4.864810546875,-0.01774010993540287,-0.02203480340540409,0.0014833094319328666,-0.19835112988948822,-0.6002086400985718,-0.7748589515686035,-0.001691669225692749,0.00026351213455200195,-0.004010617733001709,0.9262269425342078,0.33243006620490567,-0.04539571441188431,0.17185218658745816
1715270028364801000,4.874801025390625,-0.01819082349538803,-0.03051377460360527,0.013682452030479908,-0.19861026108264923,-0.6001400351524353,-0.7748457193374634,-0.0015088468790054321,0.0030635595321655273,-0.0030472278594970703,0.9262266376629165,0.3324197494037369,-0.04554380922214413,0.1718346751031043
1715270028374791000,4.884791015625,-0.048892542719841,-0.027962733060121536,0.018096907064318657,-0.1989591419696808,-0.5999785661697388,-0.7748813033103943,-0.003967553377151489,0.0008574128150939941,-0.0063076019287109375,0.9262337284085972,0.3323665220360996,-0.04573671105128421,0.17184850283646314
1715270028384780800,4.89478076171875,-0.07260879129171371,-0.02057459205389023,0.026947656646370888,-0.1992417871952057,-0.5995288491249084,-0.7751567363739014,-0.005195543169975281,-0.006229877471923828,-0.005299746990203857,0.9263009970286975,0.3321346516488043,-0.04591525753134429,0.17188673600612803
1715270028394771700,4.904771728515625,-0.0651404857635498,-0.013331592082977295,0.030369020998477936,-0.19956625998020172,-0.5989517569541931,-0.7755192518234253,-0.0037418901920318604,-0.00738680362701416,-0.006478309631347656,0.9263802689366245,0.33183514656846136,-0.046106375584592435,0.1719862852278341
1715270028404761900,4.914761962890625,-0.051798585802316666,-0.006878753192722797,0.030538996681571007,-0.1998589038848877,-0.5983798503875732,-0.775885283946991,-0.00169450044631958,-0.005196869373321533,-0.010277986526489258,0.926457683012258,0.3315358132111666,-0.04627485217115199,0.17210134099508345
1715270028414751700,4.924751708984375,-0.007536847144365311,-0.00722549669444561,0.041771940886974335,-0.20013825595378876,-0.5979948043823242,-0.7761101126670837,-0.0024069994688034058,0.0036801695823669434,-0.009854793548583984,0.9264877706074556,0.33134872339742494,-0.046399929045929794,0.17226611832969846
1715270028424741600,4.93474169921875,0.05884680896997452,-0.013271937146782875,0.047123298048973083,-0.2005043625831604,-0.5980551838874817,-0.7759690880775452,-0.0029411613941192627,0.012285470962524414,-0.011124968528747559,0.9264129996590076,0.331439161138329,-0.04651391486566922,0.17246327735593092
1715270028434732800,4.94473291015625,0.08226878196001053,-0.013837059959769249,0.03398645669221878,-0.2008504867553711,-0.5985450744628906,-0.7755017280578613,-0.0023050904273986816,0.025119662284851074,-0.011500775814056396,0.9262529506333627,0.3317822625898143,-0.046579617847551325,0.17264556361542305
1715270028444723000,4.954722900390625,0.053915008902549744,-0.00224751653149724,0.016102466732263565,-0.20104199647903442,-0.5989918112754822,-0.7751070857048035,-0.0008165985345840454,0.022713065147399902,-0.007287263870239258,0.9261257218153323,0.3320774085176824,-0.04659451670471934,0.17275675577005284
1715270028454712800,4.964712890625,0.16066569089889526,-0.09119762480258942,0.04917013645172119,-0.2014048993587494,-0.5995479226112366,-0.7745827436447144,-0.0007283538579940796,0.0002741217613220215,-0.0009451508522033691,0.925965840185043,0.33245819613394445,-0.04669221696321099,0.17285496508619885
1715270028464702700,4.97470263671875,0.533767819404602,0.2739188075065613,0.016831373795866966,-0.2011137157678604,-0.6030676960945129,-0.7719214558601379,0.004412591457366943,0.0036413073539733887,-0.00041735172271728516,0.9251285643010169,0.3345553548146099,-0.045956408750726624,0.17348778791599256
1715270028474694000,4.98469384765625,0.30455222725868225,-0.11463691294193268,-0.05010345205664635,-0.2014624923467636,-0.6062849164009094,-0.7693058848381042,-0.05459532141685486,0.09575629234313965,0.05054068565368652,0.9245068817009041,0.3365014371731933,-0.045976567739555885,0.17303221602932617
1715270028484683800,4.994683837890625,0.09627988189458847,-0.05763913691043854,0.1292370706796646,-0.2022136002779007,-0.607748806476593,-0.7679525017738342,-0.07537436485290527,0.04013705253601074,0.009544968605041504,0.9241052437455535,0.33748171348251993,-0.04615012408384203,0.1732219240146961
1715270028494673700,5.004673583984375,-0.08780527114868164,-0.03612585365772247,0.07310137152671814,-0.20305576920509338,-0.6073986887931824,-0.7680073380470276,0.13736660778522491,-0.05750316381454468,0.07525837421417236,0.9240425165282509,0.3373966571162317,-0.046473885587200836,0.17363549623862629
1715270028504663800,5.014663818359375,-0.1360839605331421,-0.0735832154750824,0.0366482213139534,-0.2036915272474289,-0.6064035296440125,-0.7686250805854797,0.024370163679122925,-0.033107638359069824,0.03539454936981201,0.9241888852985943,0.33688420839696953,-0.04686666138326914,0.1737455019878505
1715270028514654000,5.024654052734375,-0.1551777571439743,-0.06809177994728088,0.027758056297898293,-0.20441384613513947,-0.6051449179649353,-0.7694249153137207,0.01851595938205719,-0.03146713972091675,0.011978685855865479,0.924405610599287,0.33621932935410026,-0.04737202657941533,0.17374359401754463
1715270028524644900,5.034644775390625,-0.20988941192626953,-0.04842806234955788,-0.028670264407992363,-0.20482777059078217,-0.6037183403968811,-0.7704348564147949,0.00254194438457489,-0.020061075687408447,-0.011730611324310303,0.9247024216863577,0.33540989085989936,-0.04777841219847312,0.1736176401819589
1715270028534634800,5.044634765625,-0.2835122346878052,-0.011329161934554577,-0.07300417125225067,-0.20469261705875397,-0.6018949151039124,-0.7718960046768188,0.005321204662322998,-0.023791790008544922,-0.0213015079498291,0.9251661029504645,0.33428363682283957,-0.04802535765611707,0.1732507113452892
1715270028544625000,5.054625,-0.30788859724998474,0.01464278344064951,-0.10572843253612518,-0.20411576330661774,-0.5997597575187683,-0.7737086415290833,0.00016671419143676758,-0.020922064781188965,-0.016589760780334473,0.9257458982708978,0.3329125404539921,-0.04811356719628293,0.17276892956509166
1715270028554622000,5.0646220703125,-0.25797030329704285,0.06869855523109436,-0.0911066085100174,-0.20339570939540863,-0.5976616740226746,-0.7755196690559387,-0.014804959297180176,-0.01378852128982544,-0.016976118087768555,0.9422100769055513,0.31715944446640587,-0.10793543860785516,5.551115123125783e-17
1715270028564612900,5.07461279296875,-0.08324902504682541,0.07244668900966644,-0.054125890135765076,-0.20239220559597015,-0.5963646769523621,-0.7767795920372009,-0.027496710419654846,0.01280754804611206,-0.014892160892486572,0.9425443066699928,0.316336517449343,-0.10743092092538623,-0.0001969371152999999
