time,seconds_elapsed,rotationRateX,rotationRateY,rotationRateZ,gravityX,gravityY,gravityZ,accelerationX,accelerationY,accelerationZ,quaternionW,quaternionX,quaternionY,quaternionZ
1715270008249406000,0.452406005859375,0.0250986460596323,-0.009999179281294346,-0.005569140426814556,-0.26725006103515625,-0.446048766374588,-0.8541767001152039,-0.008964449167251587,-0.0004995465278625488,-0.008616328239440918,0.9628541258430142,0.23162842818369048,-0.138780143036929,-1.1102230246251565e-16
1715270008259395800,0.462395751953125,0.004603439010679722,-0.013307357206940651,0.00010425818618386984,-0.26735079288482666,-0.4462769627571106,-0.8540259599685669,-0.007002145051956177,-0.006817340850830078,-0.005532205104827881,0.9628150304385866,0.23175460505598636,-0.13884098947016577,-0.0000120393132289065
1715270008269386800,0.47238671875,-0.018164191395044327,-0.009279060177505016,-0.0004520762013271451,-0.26744598150253296,-0.4462985098361969,-0.8539849519729614,-0.001215428113937378,-0.008520036935806274,-0.00534433126449585,0.9628044440412771,0.2317655960587872,-0.13889652747936015,-0.000031050722295922206
1715270008279375400,0.482375244140625,-0.039332274347543716,-0.00813230313360691,-0.00025473604910075665,-0.26753681898117065,-0.4460742473602295,-0.8540736436843872,-0.002864152193069458,-0.00889703631401062,-0.004370510578155518,0.962827527068823,0.23164805965949486,-0.13893289148883314,-5.551115123125783e-17
1715270008289365200,0.492365234375,-0.05360948294401169,-0.007594877853989601,0.005201016087085009,-0.2677134573459625,-0.44566968083381653,-0.8542295098304749,-0.0037556886672973633,-0.009225338697433472,-0.0037264227867126465,0.9628680290290785,0.23142494475494169,-0.13902423847527207,-0.000022743914277978394
1715270008299355400,0.50235546875,-0.05611482262611389,0.00715344212949276,0.00671349186450243,-0.2678777873516083,-0.4450732171535492,-0.8544889688491821,-0.0020349621772766113,-0.009196221828460693,-0.005969405174255371,0.96293536555807,0.23110138071011516,-0.13909593755226224,-0.000006533524098961685
1715270008309346600,0.5123466796875,-0.02361840009689331,0.010980671271681786,-0.006408435292541981,-0.26790300011634827,-0.44461265206336975,-0.8547207713127136,0.0022780001163482666,-0.0038583874702453613,-0.002517998218536377,0.9629955592948806,0.23084942550781368,-0.1390976744339226,0.000004591471402914937
1715270008319336400,0.52233642578125,0.020924460142850876,0.005118254572153091,-0.010950589552521706,-0.267875611782074,-0.44456711411476135,-0.8547530174255371,0.0020980238914489746,0.012712866067886353,-0.0009140968322753906,0.9630038385715891,0.23081951848020782,-0.13908934237874584,-0.00002498397558159393
1715270008329326300,0.532326416015625,0.06049637496471405,0.0066610234789550304,-0.012449683621525764,-0.2678489685058594,-0.44492897391319275,-0.8545730710029602,0.001262664794921875,0.01916298270225525,-0.003733813762664795,0.9629571415998108,0.23101662643312804,-0.13908553561897632,-0.0000386319921695244
1715270008339317200,0.542317138671875,0.06727592647075653,0.014592716470360756,-0.014580478891730309,-0.26775631308555603,-0.4455740749835968,-0.8542659282684326,0.0027416348457336426,0.01077491044998169,-0.005826234817504883,0.962877436334291,0.23137128921574635,-0.13904803988463899,-0.000034867299541718744
1715270008349307400,0.552307373046875,0.07063443958759308,0.012077094055712223,-0.010588400065898895,-0.26756155490875244,-0.4462957978248596,-0.8539501428604126,0.001860290765762329,0.005530446767807007,-0.004249870777130127,0.9627954806517156,0.23176507786045045,-0.1389599568218424,-0.000039843278981266383
1715270008359297300,0.56229736328125,0.04412426799535751,0.002091039204970002,-0.015369107015430927,-0.2674574553966522,-0.446896493434906,-0.8536685705184937,0.001588284969329834,0.003872811794281006,0.006332755088806152,0.9627223550238178,0.23209191099105314,-0.13892103592169175,-0.00005888158874767235
1715270008369287200,0.572287109375,0.03213844820857048,0.00021430966444313526,-0.01481090858578682,-0.2674046754837036,-0.4473209083080292,-0.853462815284729,0.008798718452453613,-0.002004653215408325,0.011543869972229004,0.9626689117193192,0.2323188601839779,-0.13891200832230327,-0.00010301866167905516
1715270008379278300,0.5822783203125,0.025546535849571228,0.0008454788476228714,-0.007779364474117756,-0.26734456419944763,-0.44763797521591187,-0.8533154129981995,0.012232869863510132,-0.008477747440338135,0.016843795776367188,0.962630642712603,0.2324890895058619,-0.1388925038005912,-0.00012860843812040335
1715270008389268500,0.5922685546875,0.026059728115797043,-0.005986328236758709,-0.014218355529010296,-0.2672710418701172,-0.4478755295276642,-0.8532137274742126,0.007856398820877075,-0.009888112545013428,0.015353679656982422,0.9626041319041267,0.23261266369949918,-0.13886859701859997,-0.00017179278131096432
1715270008399258400,0.60225830078125,0.019099503755569458,-0.007244405336678028,-0.011803933419287205,-0.26727744936943054,-0.4479239881038666,-0.853186309337616,0.0020949244499206543,0.0012839436531066895,0.010214567184448242,0.9625971221934663,0.2326333796710734,-0.13888320764797998,-0.00021431854146064522
1715270008409249300,0.612249267578125,0.023224208503961563,-0.004285633563995361,-0.01835504360496998,-0.2672673463821411,-0.44787174463272095,-0.8532168865203857,0.0030003786087036133,0.007838785648345947,0.002463102340698242,0.9626050714674744,0.23259749880286365,-0.13888825748335895,-0.0002616935708619761
1715270008419239200,0.6222392578125,0.015520482324063778,-0.003342342097312212,-0.01094779372215271,-0.26721155643463135,-0.447915256023407,-0.853211522102356,0.004745125770568848,0.007149875164031982,-0.005385279655456543,0.9626036510109431,0.23261346742282085,-0.13887117796756673,-0.0003100389667263226
1715270008429229300,0.632229248046875,-0.0005482328124344349,-0.004654481541365385,-0.004822256974875927,-0.26718080043792725,-0.44789186120033264,-0.8532334566116333,0.003417372703552246,0.002411484718322754,-0.0088423490524292,0.9626093289763714,0.23259508414973312,-0.13886250583439005,-0.0003436992063057809
1715270008439219200,0.64221923828125,-0.017383139580488205,-0.004556210711598396,0.0037744271103292704,-0.2672460377216339,-0.4478001594543457,-0.8532611727714539,0.0008580982685089111,0.004501849412918091,-0.008616268634796143,0.9626164914549538,0.23254440621878766,-0.13889753883927647,-0.000352801613008491
1715270008449210400,0.65221044921875,-0.025288734585046768,0.00034666876308619976,0.004760329611599445,-0.26721203327178955,-0.44766494631767273,-0.8533427715301514,0.0014191865921020508,0.009356260299682617,-0.002385377883911133,0.9626376996003121,0.23246850134943056,-0.13887772234286624,-0.00035667495470759203
1715270008459200300,0.6622001953125,-0.019502483308315277,-0.007819647900760174,0.008494880050420761,-0.2671602964401245,-0.44766008853912354,-0.8533614873886108,0.0032290220260620117,0.015210747718811035,0.000044226646423339844,0.9626425863849342,0.23246257450652452,-0.13885387139251532,-0.0003720918826930486
1715270008469190400,0.6721904296875,-0.02903074026107788,-0.015061581507325172,0.01768624782562256,-0.26725438237190247,-0.44761866331100464,-0.8533537983894348,0.0003934502601623535,0.01892298460006714,0.002081155776977539,0.962640577130457,0.23244144866438332,-0.13890315535875575,-0.000372637050402691
1715270008479181300,0.682181396484375,-0.05068304017186165,-0.013585126027464867,0.022354768589138985,-0.2674792408943176,-0.4472895562648773,-0.8534559011459351,-0.00038883090019226074,0.00917920470237732,0.006532073020935059,0.9626670805698126,0.23227164814442636,-0.1390033827386259,-0.00032017178636983834
1715270010367342300,2.57034228515625,0.4767560660839081,1.1510365009307861,3.6560604572296143,-0.20090653002262115,-0.6238305568695068,-0.7552959322929382,-0.35356733202934265,-0.2216588854789734,0.004914522171020508,0.9209581780654846,0.3076543376189514,-0.16643568303154138,-0.17170905547649007
1715270010377332200,2.580332275390625,0.6519860625267029,1.150094747543335,3.560922622680664,-0.21463939547538757,-0.6205368041992188,-0.7542307376861572,-0.3353789150714874,-0.20345306396484375,0.04137063026428223,0.9239902508612803,0.3081500939011286,-0.16711719898479702,-0.1528312581075139
1715270010387322000,2.590322021484375,0.8157172203063965,1.15829598903656,3.4363174438476562,-0.2276357263326645,-0.6183477640151978,-0.7522154450416565,-0.3211618959903717,-0.16245973110198975,0.046206533908843994,0.9263270762505473,0.3094537441426012,-0.16772195630576758,-0.13426085177416702
1715270010397313000,2.60031298828125,0.9415779709815979,1.1627280712127686,3.3115336894989014,-0.23974396288394928,-0.6170921325683594,-0.7494799494743347,-0.3108236789703369,-0.12340164184570312,0.03478878736495972,0.9280387883148498,0.311433138145332,-0.16813512897372374,-0.11612104619706182
1715270010407303200,2.61030322265625,1.0112059116363525,1.1972005367279053,3.188053846359253,-0.25093844532966614,-0.6164201498031616,-0.7463619112968445,-0.30847927927970886,-0.0984540581703186,0.03501242399215698,0.9292486052883959,0.3138645788881917,-0.16825005809865692,-0.09837653803764307
1715270010417293000,2.62029296875,1.0570693016052246,1.2598044872283936,3.026125431060791,-0.2609436511993408,-0.6161398887634277,-0.7431554794311523,-0.3016326427459717,-0.12301111221313477,0.025839805603027344,0.9300509943539623,0.3165925556975384,-0.16790302176238597,-0.08113438660825062
1715270010427283000,2.630282958984375,1.0855872631072998,1.2986984252929688,2.8705687522888184,-0.26960131525993347,-0.616304337978363,-0.7399216890335083,-0.28905346989631653,-0.17159849405288696,0.007393002510070801,0.9304845305986287,0.31959716346381567,-0.1670233627289156,-0.06449367445743892
1715270010437274000,2.640274169921875,1.0255769491195679,1.3244383335113525,2.7491836547851562,-0.27723345160484314,-0.6164771318435669,-0.7369515299797058,-0.28007856011390686,-0.2364128828048706,-0.0005362629890441895,0.9306604611446482,0.3225769517630587,-0.16573579021816076,-0.04844431592643683
1715270010447264300,2.65026416015625,0.8689795732498169,1.3612549304962158,2.577646255493164,-0.2837800979614258,-0.6159704923629761,-0.7348803877830505,-0.2686338424682617,-0.2776147127151489,0.009309709072113037,0.9307768394705569,0.3250608418598375,-0.16399771516221068,-0.03308678664994891
1715270010457254100,2.660254150390625,0.7133235931396484,1.3592884540557861,2.4199674129486084,-0.2891324758529663,-0.6146106123924255,-0.7339320182800293,-0.2498842477798462,-0.28207212686538696,0.025146007537841797,0.9309241071879055,0.3268726332613754,-0.16182790879084252,-0.018610499989891893
1715270010467245000,2.6702451171875,0.4734010100364685,1.3255963325500488,2.2931342124938965,-0.29371318221092224,-0.612144947052002,-0.7341737747192383,-0.23671287298202515,-0.29634809494018555,0.04224872589111328,0.9311617507925514,0.3278490838859584,-0.15946191622973868,-0.004966455799254865
1715270010477235200,2.680235107421875,0.2501552104949951,1.2991769313812256,2.164393663406372,-0.29768601059913635,-0.6081683039665222,-0.7358765602111816,-0.22504958510398865,-0.3608868718147278,0.055578768253326416,0.9315991005681276,0.32773035391457606,-0.15701761766500266,0.007828166069076714
1715270010487225000,2.69022509765625,0.08394944667816162,1.2997907400131226,2.00825834274292,-0.30074840784072876,-0.6031581163406372,-0.7387494444847107,-0.19389575719833374,-0.3905094861984253,0.0839490294456482,0.9321923459237914,0.3267958952989633,-0.1543687897699087,0.01980685700602769
1715270010497215000,2.700215087890625,0.006544350180774927,1.2691510915756226,1.8541193008422852,-0.3028039336204529,-0.5975977778434753,-0.7424194812774658,-0.17832094430923462,-0.39613085985183716,0.11567997932434082,0.9328737203854714,0.32532212580430736,-0.15151162281856637,0.030925522541085493
1715270010507206100,2.7102060546875,0.051715023815631866,1.206428050994873,1.716801404953003,-0.3041831851005554,-0.5923462510108948,-0.7460552453994751,-0.1821754276752472,-0.36045825481414795,0.14762085676193237,0.9334474911221314,0.3238604645323526,-0.14861618544936464,0.0412714585184869
1715270010517196300,2.7201962890625,0.12223292142152786,1.1262112855911255,1.608738899230957,-0.3052475154399872,-0.5878947377204895,-0.7491353154182434,-0.19118192791938782,-0.322948157787323,0.1789754033088684,0.9337938909163311,0.3227462991691137,-0.14583265655230487,0.05095677182885383
1715270010527186200,2.730186279296875,0.20435309410095215,1.0520566701889038,1.5316712856292725,-0.3062949478626251,-0.5843880772590637,-0.7514479160308838,-0.18944787979125977,-0.3012930154800415,0.1815474033355713,0.9338651325086929,0.32211530609354033,-0.1432402367825894,0.060166070565400576
1715270010537176000,2.740176025390625,0.23689356446266174,1.0194270610809326,1.354654312133789,-0.3069063127040863,-0.5815513730049133,-0.7533966898918152,-0.1881193220615387,-0.26953810453414917,0.1971069574356079,0.9337948047488738,0.32174545987102543,-0.14064681574937976,0.06874342351591661
1715270010547167000,2.7501669921875,0.35859256982803345,0.8922670483589172,1.2327239513397217,-0.3071489930152893,-0.5798789262771606,-0.7545859217643738,-0.1866559386253357,-0.20480430126190186,0.21126627922058105,0.9335106589776507,0.3219090666472674,-0.1381361012104061,0.07649046504780488
1715270010557157000,2.7601572265625,0.4172273278236389,0.7633846998214722,1.1826200485229492,-0.3079087436199188,-0.5791643857955933,-0.7548249959945679,-0.17939597368240356,-0.17500126361846924,0.21268022060394287,0.9329546147900858,0.3226022654783752,-0.13607083691000532,0.08371439173935968
1715270010567147300,2.770147216796875,0.36328473687171936,0.689663290977478,1.1123884916305542,-0.309081107378006,-0.578594446182251,-0.7547829747200012,-0.16439911723136902,-0.22166800498962402,0.18956691026687622,0.9323106288111223,0.32334392361036646,-0.13437717562408014,0.09048967974217242
1715270010577137200,2.78013720703125,0.29982510209083557,0.6277109980583191,1.0360140800476074,-0.3103281557559967,-0.5777644515037537,-0.7549070715904236,-0.1661122739315033,-0.24337202310562134,0.15482473373413086,0.9317122409556551,0.323859346005327,-0.13289686434943263,0.09677795761201291
1715270010587128000,2.790128173828125,0.19106082618236542,0.5836788415908813,0.9515412449836731,-0.31148549914360046,-0.5765366554260254,-0.7553689479827881,-0.19025400280952454,-0.2627882957458496,0.12693572044372559,0.9312187259142578,0.3240481438209917,-0.13156108708066377,0.10254834198603208
1715270010597118200,2.8001181640625,0.09955541044473648,0.5537715554237366,0.8293313384056091,-0.3123534321784973,-0.5748241543769836,-0.7563150525093079,-0.19495552778244019,-0.2802325487136841,0.09023839235305786,0.9308893612719871,0.323827327243758,-0.1303009307397585,0.10771471602818383
1715270010607108000,2.810108154296875,0.07924933731555939,0.5134129524230957,0.6915271282196045,-0.31263211369514465,-0.5730785727500916,-0.7575236558914185,-0.17793795466423035,-0.26784855127334595,0.05671805143356323,0.9306901977509006,0.3234210623514894,-0.1289844425432566,0.11214945717369285
1715270010617099000,2.82009912109375,0.10201920568943024,0.4512224793434143,0.6143028140068054,-0.3126738965511322,-0.5717573165893555,-0.7585042119026184,-0.16243904829025269,-0.24522876739501953,0.04022723436355591,0.9304804537776994,0.3231622696350319,-0.12772640356231077,0.11600989043183974
1715270010627089200,2.830089111328125,0.12573066353797913,0.4272548258304596,0.5069640874862671,-0.31258082389831543,-0.5708642601966858,-0.7592149376869202,-0.14074254035949707,-0.2412542700767517,0.033964693546295166,0.9302410560353214,0.3230799689696819,-0.12653801495390812,0.11941178562510385
1715270010637079300,2.840079345703125,0.11861085891723633,0.40297505259513855,0.3746667504310608,-0.31192874908447266,-0.5704057812690735,-0.7598273754119873,-0.13123223185539246,-0.20419132709503174,0.03532487154006958,0.9300441409458118,0.3231104206928105,-0.12524360659950973,0.12219441988866625
1715270010647069200,2.850069091796875,0.10418504476547241,0.3168255388736725,0.311593234539032,-0.311123788356781,-0.5702288150787354,-0.7602900862693787,-0.1538420021533966,-0.16608399152755737,0.03293418884277344,0.9298726054291757,0.32321503095868154,-0.12404434073479749,0.1244263409815089
1715270010657060000,2.86006005859375,0.05175236240029335,0.22778142988681793,0.2759372889995575,-0.31073129177093506,-0.5699189305305481,-0.7606829404830933,-0.15611135959625244,-0.1872069239616394,0.03012263774871826,0.929728250882057,0.323232064060807,-0.12320537737826698,0.126281175627174
1715270010667050200,2.87005029296875,-0.05746680498123169,0.17775075137615204,0.21162383258342743,-0.3105817437171936,-0.5691673159599304,-0.7613064646720886,-0.11356678605079651,-0.2289741039276123,0.04458588361740112,0.9296964057150692,0.3229573404366208,-0.12265941019201157,0.12774088620612523
1715270010677040400,2.880040283203125,-0.17717860639095306,0.12679915130138397,0.14527229964733124,-0.3104259669780731,-0.5677325129508972,-0.7624405026435852,-0.08593636751174927,-0.24661380052566528,0.06001746654510498,0.9298646799897515,0.32221012991008885,-0.12231258309625262,0.12873224879633804
1715270010687030300,2.8900302734375,-0.29183757305145264,0.08357152342796326,0.0914924219250679,-0.31032028794288635,-0.5655699372291565,-0.7640889286994934,-0.08105239272117615,-0.2145509123802185,0.07855737209320068,0.9302285083403339,0.3209785520567355,-0.12218138974299103,0.12930314812923638
1715270010697021400,2.900021484375,-0.3279000520706177,0.0741812139749527,0.01916763186454773,-0.3100222647190094,-0.5629700422286987,-0.7661272883415222,-0.07439243793487549,-0.16972649097442627,0.08932363986968994,0.930748712975848,0.31941744691719054,-0.12210185950702092,0.12950130747571198
1715270010707011600,2.910011474609375,-0.2520918548107147,0.05512256547808647,-0.026465367525815964,-0.3094835579395294,-0.5607450008392334,-0.7679745554924011,-0.06083199381828308,-0.12863177061080933,0.0838925838470459,0.9312599446090694,0.3180158223319112,-0.1219781099220069,0.12939119091800638
1715270010717001500,2.92000146484375,-0.1588183045387268,0.04297535493969917,-0.04530263692140579,-0.30891597270965576,-0.5592577457427979,-0.7692865133285522,-0.046949535608291626,-0.10971808433532715,0.07208192348480225,0.9316440126054234,0.3170369490166862,-0.12183723441877002,0.12916176602960155
1715270010726991400,2.929991455078125,-0.06729663163423538,0.03634168580174446,-0.08638110011816025,-0.30825385451316833,-0.5586125254631042,-0.7700205445289612,-0.03157460689544678,-0.09975838661193848,0.05697733163833618,0.9318819211386797,0.31654113188186056,-0.12162009840109009,0.12886591728721958
1715270010736982300,2.939982177734375,0.011411916464567184,0.012284021824598312,-0.122104212641716,-0.3074495196342468,-0.5587196350097656,-0.7702643275260925,-0.017211735248565674,-0.059520721435546875,0.05294865369796753,0.9320121176070613,0.31645489038930696,-0.12134301800550568,0.128396156955276
1715270010746972400,2.949972412109375,0.05806543678045273,-0.008012727834284306,-0.11664020270109177,-0.3067498505115509,-0.559393584728241,-0.7700541019439697,-0.013211697340011597,-0.024026155471801758,0.0427897572517395,0.9320300053813142,0.31670859706612764,-0.12111405599069255,0.127855655659313
1715270010756962300,2.95996240234375,0.04405124485492706,-0.00800447165966034,-0.12578922510147095,-0.3061583340167999,-0.5601781010627747,-0.7697191834449768,-0.0011689364910125732,-0.024859130382537842,0.017201483249664307,0.932013056891816,0.3170415068495136,-0.12093426727714768,0.12732354671961604
1715270010766953500,2.969953369140625,-0.020190589129924774,-0.015034684911370277,-0.1452936828136444,-0.30549001693725586,-0.5607215166091919,-0.7695890069007874,0.006967097520828247,-0.02935105562210083,-0.012546002864837646,0.932066753138677,0.3172076968956316,-0.12076747522919096,0.12667304520661954
1715270010776943400,2.979943359375,-0.13758353888988495,-0.003858196083456278,-0.15559391677379608,-0.3047441244125366,-0.5605849027633667,-0.7699841856956482,0.002101302146911621,-0.0200730562210083,-0.022145330905914307,0.9322765952823915,0.3169460284505351,-0.12063633022108392,0.12590670833761136
1715270010786933500,2.98993359375,-0.24355363845825195,0.0018164673820137978,-0.15818117558956146,-0.3038715124130249,-0.5595901012420654,-0.7710518836975098,0.007896780967712402,-0.025660693645477295,-0.01852935552597046,0.9326769454784505,0.316150265783973,-0.12051174398247293,0.12505834700106028
1715270010796923400,2.99992333984375,-0.32142433524131775,0.007912975735962391,-0.13659639656543732,-0.303037166595459,-0.5578235983848572,-0.77265864610672,0.017362117767333984,-0.03299671411514282,-0.011597394943237305,0.9332229281847325,0.314899520693356,-0.12045324073263876,0.12419472890754085
1715270010806914300,3.009914306640625,-0.3095950782299042,0.047744277864694595,-0.13604697585105896,-0.3020973205566406,-0.5559110641479492,-0.7744030356407166,0.019046813249588013,-0.042080819606781006,-0.009669780731201172,0.9337948926621342,0.3135629253395269,-0.12031944295199648,0.12340420175246447
1715270010816904200,3.019904296875,-0.244268536567688,0.09278738498687744,-0.15601231157779694,-0.30075836181640625,-0.5542584657669067,-0.7761068940162659,0.01113128662109375,-0.02443110942840576,-0.017548441886901855,0.9343488091841099,0.3123472569231741,-0.11994053652511817,0.1226611757787423
1715270010826894300,3.029894287109375,-0.1387852430343628,0.07282087206840515,-0.15078292787075043,-0.29928362369537354,-0.5533263087272644,-0.7773411870002747,-0.012667030096054077,0.011913955211639404,-0.03195446729660034,0.9347697347037626,0.3115527488824928,-0.11943326849425293,0.12196715369507688
1715270010836884500,3.039884521484375,-0.08538450300693512,0.037585917860269547,-0.12629581987857819,-0.2981249690055847,-0.5529500246047974,-0.7780538201332092,-0.024918854236602783,0.04129230976104736,-0.032584547996520996,0.9350420664293161,0.3111299689444441,-0.11904292443857398,0.1213394454686289
1715270010846875400,3.04987548828125,-0.0388827845454216,0.04417511075735092,-0.10197797417640686,-0.2971741557121277,-0.5528789162635803,-0.7784680128097534,-0.009039223194122314,0.03736072778701782,-0.028096318244934082,0.9352203595839695,0.310923468358712,-0.11871222039705193,0.12081750361313864
1715270010856865300,3.059865234375,0.019199425354599953,0.062292858958244324,-0.09049421548843384,-0.2962186634540558,-0.5531255602836609,-0.7786569595336914,0.002609044313430786,0.012140452861785889,-0.008589744567871094,0.9353190737776391,0.3109237083943916,-0.1183130427518267,0.12044398861480882
1715270010866855400,3.06985546875,0.10058882087469101,0.05281307175755501,-0.07841651141643524,-0.2952571511268616,-0.5539495348930359,-0.7784363627433777,-0.0036167502403259277,0.004144787788391113,-0.0015776753425598145,0.9352963315068297,0.31127664984507053,-0.11785020298440489,0.12016228323922101
1715270010876845300,3.07984521484375,0.16618162393569946,0.052427180111408234,-0.07411690801382065,-0.294293075799942,-0.5554060935974121,-0.7777632474899292,-0.007724136114120483,0.02896261215209961,-0.004478573799133301,0.9351465229920044,0.3120099914222708,-0.11733775208063392,0.11992740010971525
1715270010886836200,3.089836181640625,0.20663423836231232,0.04175962135195732,-0.06418304890394211,-0.2933090031147003,-0.557380735874176,-0.776721715927124,0.0033004283905029297,0.03908538818359375,-0.0073664188385009766,0.9348952238747434,0.3130519396474735,-0.11678028338493511,0.11971549823001892
1715270010896826600,3.09982666015625,0.1749226599931717,0.03737685829401016,-0.045683603733778,-0.29258546233177185,-0.5591487288475037,-0.7757231593132019,0.01904118061065674,0.03273576498031616,-0.01011967658996582,0.9346414428560919,0.31401304575430217,-0.11633664152175245,0.11961187613118285
1715270010906816500,3.10981640625,0.1279578059911728,0.05095897987484932,-0.04123719036579132,-0.29219383001327515,-0.5600636005401611,-0.7752106785774231,0.025699108839035034,-0.0002848505973815918,-0.012768447399139404,0.9345019719417892,0.3145180392256791,-0.11607358690402632,0.11963039959770777
1715270010916807400,3.119807373046875,0.07664769887924194,0.07040005922317505,-0.03916804865002632,-0.2918764054775238,-0.5602608919143677,-0.7751876711845398,0.025747865438461304,-0.021480441093444824,-0.015782177448272705,0.9344835658417731,0.31461452184197575,-0.11586136102669164,0.11972640190119016
1715270010926797300,3.12979736328125,0.0585176944732666,0.06940217316150665,-0.04330739751458168,-0.2912479341030121,-0.5602789521217346,-0.7754108905792236,0.023608773946762085,-0.028588175773620605,-0.015864133834838867,0.9345399945914761,0.31456406630441036,-0.1155162193305875,0.11975124662477193
1715270010936787500,3.139787353515625,0.054478585720062256,0.06511448323726654,-0.02393929287791252,-0.2905609607696533,-0.5605698227882385,-0.7754584550857544,0.02858281135559082,-0.025016725063323975,-0.019280314445495605,0.934552289404796,0.3146668544772246,-0.11513274109269044,0.11975495210450027
1715270010946777300,3.14977734375,0.05893564969301224,0.06542474031448364,-0.025036249309778214,-0.29000815749168396,-0.5609383583068848,-0.7753989100456238,0.03556782007217407,-0.023503780364990234,-0.01712733507156372,0.9345286287856005,0.31483651441933047,-0.1147977222678633,0.1198155797423307
1715270010956768500,3.1597685546875,0.07921839505434036,0.06287263333797455,-0.022168558090925217,-0.2895728051662445,-0.5611334443092346,-0.7754204273223877,0.03559026122093201,-0.0074089765548706055,-0.01551884412765503,0.9345216861642462,0.3149199156824729,-0.1145217189243972,0.11991419378778362
1715270010966758400,3.16975830078125,0.10263636708259583,0.05415051057934761,0.0016944316448643804,-0.28916051983833313,-0.5613490343093872,-0.775418221950531,0.024649441242218018,0.007607579231262207,-0.010378897190093994,0.9345011211534352,0.31502474576038675,-0.11423788030972627,0.12006941354057099
1715270010976748500,3.17974853515625,0.09922587126493454,0.06674672663211823,0.0002673101844266057,-0.2885180413722992,-0.5616763830184937,-0.7754204869270325,0.018498539924621582,0.005859792232513428,-0.002503037452697754,0.9344789552311739,0.3151750029553844,-0.11381766615535954,0.12024687753593472
1715270010986738400,3.189738525390625,0.1300559639930725,0.06852412223815918,0.000991157372482121,-0.28758445382118225,-0.5625335574150085,-0.7751458883285522,0.011125713586807251,0.01016545295715332,0.0040277838706970215,0.934390596010703,0.3156024969925944,-0.11323476255484315,0.12036256248839128
1715270010996729300,3.199729248046875,0.12542524933815002,0.08115389943122864,-0.001615012064576149,-0.2865160405635834,-0.5637255907058716,-0.7746754288673401,-0.006834208965301514,0.014195561408996582,0.008577406406402588,0.9342506486879227,0.31621446096110634,-0.11256421119124295,0.12047150848148758
1715270011006719200,3.20971923828125,0.13269568979740143,0.09656241536140442,-0.027446608990430832,-0.28515490889549255,-0.5650778412818909,-0.7741922736167908,-0.015458494424819946,0.01368623971939087,0.0048746466636657715,0.9341169663014011,0.31688312527185725,-0.11175394528608013,0.12050563477717408
1715270011016709400,3.21970947265625,0.14156773686408997,0.10465815663337708,-0.028018390759825706,-0.2835133671760559,-0.5664342641830444,-0.7738038301467896,-0.008173614740371704,0.02312988042831421,0.006302058696746826,0.9340157240861444,0.31751959296470245,-0.11081242615182858,0.12048432520603997
1715270011026699300,3.22969921875,0.13170552253723145,0.11376617848873138,-0.026761909946799278,-0.2817278504371643,-0.5677987933158875,-0.773455798625946,-0.008875787258148193,0.011036157608032227,0.001223742961883545,0.9339240329457404,0.318148085903771,-0.10979023532067551,0.12047279297695296
1715270011036690400,3.2396904296875,0.10721401870250702,0.11913084983825684,-0.03401556238532066,-0.27991586923599243,-0.5687477588653564,-0.7734165191650391,-0.014670312404632568,-0.008599042892456055,-0.008352279663085938,0.9339112639603836,0.3185305168127523,-0.10876604996662793,0.12049112821767594
1715270011046680600,3.2496806640625,0.06902934610843658,0.1093091070652008,-0.03783959522843361,-0.2784756124019623,-0.5692277550697327,-0.7735832929611206,-0.018582463264465332,-0.010194242000579834,-0.0060950517654418945,0.9339511728493458,0.31867401630630243,-0.10795930647256397,0.12052783918036619
1715270011056670500,3.25967041015625,0.00683229137212038,0.09677919745445251,-0.04730633273720741,-0.2772866189479828,-0.5694155097007751,-0.7738721966743469,-0.0179099440574646,-0.008114397525787354,0.0016859173774719238,0.9340295780695156,0.3186640280528298,-0.1073179366314241,0.12051933844002832
1715270011066660400,3.269660400390625,-0.040051594376564026,0.09361030161380768,-0.045077934861183167,-0.27635204792022705,-0.5691647529602051,-0.7743907570838928,-0.00897204875946045,-0.009967267513275146,0.007239878177642822,0.9341725506367324,0.3184162355975927,-0.10684443260188684,0.12048657998004364
1715270011076651300,3.2796513671875,-0.09221796691417694,0.08684614300727844,-0.04432499408721924,-0.2758675813674927,-0.5684918165206909,-0.7750574350357056,-0.008464664220809937,-0.015355169773101807,0.012850463390350342,0.934350556347846,0.31796706206069447,-0.10662187799012512,0.12048914767180224
1715270011086641400,3.289641357421875,-0.11041507869958878,0.08261890709400177,-0.0527549609541893,-0.27552351355552673,-0.5675362944602966,-0.7758797407150269,-0.015812546014785767,-0.02097994089126587,0.017304301261901855,0.9345761579967056,0.31735913841121877,-0.10650497340361409,0.12044634513381675
1715270011096631300,3.29963134765625,-0.10549414157867432,0.07448801398277283,-0.044636648148298264,-0.2750929296016693,-0.566511869430542,-0.7767806649208069,-0.018516719341278076,-0.012833833694458008,0.022141993045806885,0.934825122533458,0.3166999070999792,-0.10635243339664627,0.12038379041723202
1715270011106622500,3.30962255859375,-0.08912742137908936,0.07508854568004608,-0.055167317390441895,-0.27458593249320984,-0.5657308101654053,-0.7775288820266724,-0.021465063095092773,-0.005481898784637451,0.02444666624069214,0.9350381183630273,0.3161737924486447,-0.10615874194467531,0.12028350560356016
1715270011116612400,3.3196123046875,-0.03316998481750488,0.06755606830120087,-0.05751589685678482,-0.27401700615882874,-0.5654668807983398,-0.7779215574264526,-0.018478721380233765,0.005316734313964844,0.024717211723327637,0.935162273988381,0.31594319439291496,-0.10592039019582904,0.12013473631677268
1715270011126602500,3.3296025390625,-0.0004948633722960949,0.04390799254179001,-0.03717866539955139,-0.2736944258213043,-0.5655924677848816,-0.7779437899589539,-0.015322327613830566,0.018473327159881592,0.024419009685516357,0.9351808885281053,0.3159741913703746,-0.10577532110601165,0.1200355937069078
1715270011136592400,3.33959228515625,0.020708851516246796,0.039494868367910385,-0.023777971044182777,-0.2735864222049713,-0.5659159421920776,-0.7777464985847473,-0.013278782367706299,0.013807177543640137,0.015066444873809814,0.93513079652578,0.3161530263240834,-0.10570719168763454,0.12001519484792578
1715270011146583300,3.349583251953125,0.03017878532409668,0.037683919072151184,-0.03715503215789795,-0.2733393609523773,-0.5664446949958801,-0.7774484157562256,-0.006552577018737793,0.016868889331817627,0.002500295639038086,0.9350585384826886,0.31643564592055934,-0.1055663772401123,0.1199578598629839
1715270011156573200,3.3595732421875,0.018376614898443222,0.0475141815841198,-0.030414503067731857,-0.27304723858833313,-0.5670546293258667,-0.7771063446998596,-0.00483056902885437,0.0179518461227417,-0.009713053703308105,0.9349770876377644,0.31675978011847894,-0.10540424839291421,0.11987969109581786
1715270011166563600,3.3695634765625,0.25317180156707764,-0.15714015066623688,-0.024755818769335747,-0.27320197224617004,-0.5680939555168152,-0.7762925028800964,-0.004462242126464844,-0.0011046528816223145,-0.02339017391204834,0.9347713683656833,0.31738232038811687,-0.10546193867140517,0.11978669418911042
1715270011176553500,3.379553466796875,1.2046568393707275,0.061762090772390366,0.24409042298793793,-0.2749796211719513,-0.5755661725997925,-0.770136296749115,-0.005080163478851318,-0.0032149553298950195,-0.039983391761779785,0.9329974633287534,0.3221273831140171,-0.10566841808690323,0.12076416858349004
1715270011186544400,3.38954443359375,0.7151973843574524,-0.13285478949546814,0.03151318058371544,-0.27688121795654297,-0.5817664861679077,-0.764777421951294,-0.012242317199707031,0.007257819175720215,-0.021614789962768555,0.9314335862086722,0.32615094539482575,-0.10600400353035931,0.12173788739737273
1715270011196534300,3.3995341796875,0.8555991649627686,-0.2352685183286667,0.0819946676492691,-0.27831655740737915,-0.5880915522575378,-0.7593998908996582,-0.09543219208717346,0.11126971244812012,-0.02543586492538452,0.9299472493138092,0.3301493574388659,-0.10630829993307973,0.12205737010824685
1715270011206524400,3.4095244140625,0.2826935946941376,-0.12403653562068939,0.09175621718168259,-0.2803964912891388,-0.5922548770904541,-0.755388617515564,-0.01599019765853882,0.1748964786529541,0.08700788021087646,0.928800358952286,0.33294940756078123,-0.1070064590520535,0.1225730220359672
1715270011216515300,3.419515380859375,-0.1739976704120636,0.03512195870280266,-0.0796889066696167,-0.280654639005661,-0.5924748778343201,-0.7551202178001404,0.1087186336517334,-0.12648868560791016,0.05716794729232788,0.9287316952204169,0.3331073366190314,-0.10714193241945308,0.12254674071992555
1715270011226505500,3.42950537109375,-0.25817808508872986,0.030947720631957054,-0.11713534593582153,-0.2796383500099182,-0.5910849571228027,-0.7565851211547852,0.08553129434585571,-0.15011078119277954,0.08031558990478516,0.9292003671329196,0.33209139354551254,-0.10687723583940512,0.12198089496281839
1715270011236495600,3.43949560546875,-0.3205193281173706,-0.026089465245604515,-0.10503494739532471,-0.27898091077804565,-0.5892159342765808,-0.7582837343215942,0.015263259410858154,-0.046846628189086914,0.07270634174346924,0.9297448377066019,0.33081353741221986,-0.10686685032957755,0.12131167882982408
1715270011246485500,3.449485595703125,-0.3755468726158142,0.014928807504475117,-0.13710126280784607,-0.27831533551216125,-0.5869150757789612,-0.7603099346160889,0.018091976642608643,-0.04023635387420654,0.0020549893379211426,0.9303899826921886,0.3292644753404541,-0.10691082533204528,0.12053808483369355
1715270011256476400,3.459476318359375,-0.4241690933704376,0.10048098862171173,-0.11413004249334335,-0.27709871530532837,-0.5842193365097046,-0.7628263235092163,0.04623326659202576,0.015722692012786865,-0.022680819034576416,0.9311602854993807,0.3274288265992803,-0.10666392938436627,0.1198066045353614
1715270011266466300,3.46946630859375,-0.3932652473449707,0.17229126393795013,-0.0421714261174202,-0.2755430042743683,-0.5812190175056458,-0.7656764984130859,0.017883092164993286,0.03403884172439575,-0.04744905233383179,0.9319730268207924,0.3254218040587515,-0.10612446938473881,0.11943377071321726
1715270011276456400,3.47945654296875,-0.22700704634189606,0.1479763388633728,-0.07723520696163177,-0.27393558621406555,-0.5789463520050049,-0.7679716348648071,-0.014165610074996948,0.024518251419067383,-0.06154191493988037,0.9326025194282581,0.3238819104303893,-0.10542628127585377,0.11932428587968641
1715270011286446300,3.4894462890625,-0.23473314940929413,0.10480836033821106,0.0036340781953185797,-0.2726755440235138,-0.5774659514427185,-0.7695330381393433,-0.04786580801010132,0.03143024444580078,-0.05853086709976196,0.933036569954031,0.32285384837460285,-0.1048754482679468,0.11920300059698269
1715270011296437500,3.4994375,-0.16101865470409393,0.09918376803398132,0.027391405776143074,-0.27203014492988586,-0.5757250785827637,-0.7710643410682678,-0.06938526034355164,-0.04576539993286133,-0.03592723608016968,0.9334268779428081,0.32176494237497794,-0.10457123074180767,0.11935878600768313
1715270011306427400,3.509427490234375,0.030609633773565292,0.05895192548632622,-0.004888502880930901,-0.27142858505249023,-0.5752636194229126,-0.7716205716133118,-0.016367435455322266,0.0018535852432250977,-0.0012370944023132324,0.9335606928315261,0.3214418243780751,-0.10423467769684326,0.1194769496945991
1715270011316417500,3.51941748046875,0.09243561327457428,0.027223290875554085,0.031714849174022675,-0.271198570728302,-0.5757520198822021,-0.77133709192276,0.008564293384552002,0.10980963706970215,0.01474529504776001,0.9334626890228513,0.32172972234815045,-0.10402609709684447,0.11964952927179584
1715270011326407400,3.529407470703125,0.08993224054574966,0.050076939165592194,0.02873184159398079,-0.2711019217967987,-0.5764058232307434,-0.7708826661109924,-0.008393317461013794,0.06837975978851318,0.013344824314117432,0.9333069636175487,0.32214023425765514,-0.1038477209199969,0.11991411683491593
1715270011336398300,3.5393984375,0.06848356127738953,0.071019247174263,0.025655891746282578,-0.27077504992485046,-0.5769444704055786,-0.7705945372581482,-0.011832982301712036,0.04105579853057861,0.028025567531585693,0.9331969798175088,0.3224576348510165,-0.10355577402173236,0.12016957194805095
1715270011346388200,3.54938818359375,0.046882931143045425,0.07103708386421204,0.027487346902489662,-0.2703879773616791,-0.5773060321807861,-0.7704596519470215,-0.02157372236251831,0.0013630390167236328,0.021115779876708984,0.933125289056874,0.3226652070512423,-0.10323436187476916,0.1204449369066799
1715270011356378400,3.55937841796875,0.043232910335063934,0.07781961560249329,0.008440950885415077,-0.2699248492717743,-0.5775894522666931,-0.7704096436500549,-0.01562809944152832,-0.019975244998931885,0.008370399475097656,0.9330834988417693,0.322812113208535,-0.1028957131502978,0.12066505040478798
1715270011366368300,3.5693681640625,0.041185203939676285,0.07497376203536987,0.004383359104394913,-0.2694503664970398,-0.577810525894165,-0.7704100012779236,-0.003514111042022705,-0.01638197898864746,-0.007162630558013916,0.9330607550562718,0.3229156531131869,-0.10256938436208572,0.12084182892530398
1715270011376359400,3.579359375,0.033854108303785324,0.07444353401660919,-0.009592843241989613,-0.2689717710018158,-0.5781276226043701,-0.7703392505645752,-0.001505523920059204,-0.017270267009735107,-0.01283329725265503,0.9330224903462164,0.32307314048164437,-0.10224534129870003,0.12099018101774017
1715270011386349300,3.589349365234375,0.03389086201786995,0.08206923305988312,-0.03085285983979702,-0.2683270275592804,-0.578394889831543,-0.7703635692596436,0.0014813244342803955,-0.01779651641845703,-0.007926225662231445,0.9330206361128943,0.3231746753299649,-0.10186433731064228,0.12105522239873617
1715270011396339500,3.59933935546875,0.045263465493917465,0.06632168591022491,-0.03470638766884804,-0.26762932538986206,-0.5784505009651184,-0.7705644369125366,0.0012719035148620605,-0.011805236339569092,0.003413558006286621,0.9330708181812993,0.32314021654864433,-0.10147993908303476,0.12108271839474616
1715270011406330400,3.609330322265625,0.0516505241394043,0.0570184700191021,-0.03471411019563675,-0.2671089470386505,-0.578670859336853,-0.7705795764923096,-0.0013236701488494873,-0.013492226600646973,0.01349949836730957,0.9330729946159128,0.3232209482780157,-0.10118513321689053,0.12109785746833568
1715270011416320300,3.6193203125,0.05942007899284363,0.051901206374168396,-0.05763201043009758,-0.26659199595451355,-0.5790941119194031,-0.7704406380653381,0.00469014048576355,-0.0109633207321167,0.018746912479400635,0.9330445601934484,0.32341446850559324,-0.10090970209851977,0.12102967434310535
1715270011426310400,3.629310302734375,0.07358996570110321,0.0422523058950901,-0.057487133890390396,-0.2660489082336426,-0.5797924995422363,-0.7701029181480408,0.009136706590652466,-0.0026201605796813965,0.022819101810455322,0.9329729080766354,0.3237618410163694,-0.10063199922641956,0.1208836812470731
1715270011436300500,3.639300537109375,0.0673971027135849,0.03906050696969032,-0.04665226489305496,-0.2655167877674103,-0.5805501341819763,-0.7697157859802246,0.01005411148071289,-0.012391149997711182,0.01648092269897461,0.9328872226698715,0.324146722038752,-0.10035441442915025,0.12074483436628602
1715270011446291500,3.64929150390625,0.04717198759317398,0.027420364320278168,-0.057198382914066315,-0.264984130859375,-0.5811453461647034,-0.7694501876831055,0.0086669921875,-0.02337735891342163,0.006846427917480469,0.9328352258215995,0.3244335958440688,-0.10008871321037373,0.12059721122918277
1715270011456281300,3.65928125,0.04496875777840614,0.032087553292512894,-0.05334704741835594,-0.2644295394420624,-0.5816248655319214,-0.7692785859107971,0.007120609283447266,-0.014963269233703613,0.00853639841079712,0.9328135606488909,0.3246447731297188,-0.09983225904240847,0.12040819233119116
1715270011466271500,3.669271484375,0.043959420174360275,0.027278417721390724,-0.04707663506269455,-0.26392197608947754,-0.582137405872345,-0.7690652012825012,0.01599717140197754,-0.008011460304260254,0.007483720779418945,0.9327780096299144,0.3248829513096011,-0.09959157201702358,0.12024069955545869
1715270011476261400,3.679261474609375,0.048425860702991486,0.020792555063962936,-0.05304970592260361,-0.2634662091732025,-0.5826878547668457,-0.7688045501708984,0.019935965538024902,-0.0055536627769470215,0.0012264251708984375,0.9327303099586748,0.3251488150513506,-0.09937790469024349,0.1200691059854016
1715270011486252300,3.689252197265625,0.06727305054664612,0.02658945880830288,-0.04721472039818764,-0.26310160756111145,-0.5834878087043762,-0.7683225274085999,0.02024272084236145,0.005607008934020996,-0.0014681220054626465,0.9326225948320529,0.3255742082637486,-0.09919765946153777,0.11990146174594485
1715270011496242200,3.6992421875,0.07249598950147629,0.03287052363157272,-0.05025312304496765,-0.2625882923603058,-0.5844129920005798,-0.7677948474884033,0.017257481813430786,0.011216580867767334,-0.00967097282409668,0.9325024985729329,0.32606027234635204,-0.09893068433221765,0.11973565658827706
1715270011506232600,3.709232666015625,0.08538781851530075,0.033296361565589905,-0.040941912680864334,-0.2620460093021393,-0.5853263139724731,-0.7672841548919678,0.006308704614639282,0.009032368659973145,-0.014744043350219727,0.9323834612976315,0.3265395059455386,-0.09864016090144066,0.11959519557444709
1715270011516222500,3.719222412109375,0.08834941685199738,0.04144217446446419,-0.03163163363933563,-0.26147544384002686,-0.5863131880760193,-0.7667251825332642,0.0012062788009643555,0.008615434169769287,-0.01093900203704834,0.9322454374316324,0.3270655488358193,-0.09831352967501288,0.11950321878688408
1715270011526213400,3.72921337890625,0.09131723642349243,0.0514276959002018,-0.043677110224962234,-0.2607872784137726,-0.5873659253120422,-0.7661535143852234,-0.0013892054557800293,0.011636674404144287,-0.009130299091339111,0.9321041936957539,0.32761964346961064,-0.09792151473892932,0.11940855067272271
1715270011536203300,3.739203369140625,0.0938783511519432,0.05108494684100151,-0.03584515303373337,-0.2600962817668915,-0.5883644223213196,-0.765622079372406,-0.0052845776081085205,0.020493388175964355,-0.004824697971343994,0.9319725676395123,0.3281422377746276,-0.09752755350150448,0.1193236620590622
1715270011546193400,3.749193359375,0.0707932710647583,0.05721794068813324,-0.023236684501171112,-0.25931110978126526,-0.5891775488853455,-0.765263020992279,-0.009930163621902466,0.016301631927490234,-0.002971172332763672,0.9318816071969781,0.32854865162506763,-0.09707867630876146,0.11928134966043363
1715270011556183300,3.759183349609375,0.03702406585216522,0.0757434219121933,-0.02440534718334675,-0.25838860869407654,-0.5896404981613159,-0.7652185559272766,-0.01207345724105835,0.005274653434753418,-0.0024968981742858887,0.9318719648250257,0.3287331815955146,-0.0965671603130824,0.11926410175894103
1715270011566174500,3.769174560546875,0.03321521729230881,0.08412811160087585,-0.03597811236977577,-0.2573440968990326,-0.5898424983024597,-0.7654148936271667,-0.013529956340789795,0.000059723854064941406,-0.007366478443145752,0.9319282577184069,0.32874739566853645,-0.0960088967007512,0.11923634884254153
1715270011576164600,3.77916455078125,0.02572113461792469,0.07885372638702393,-0.03827422112226486,-0.2563072443008423,-0.5899171829223633,-0.7657051086425781,-0.011057257652282715,0.0006837844848632812,-0.009243011474609375,0.9320105832925684,0.3286851563436924,-0.09546471193222082,0.11920069172892162
1715270011586154500,3.789154541015625,0.0005297609604895115,0.06474083662033081,-0.039917923510074615,-0.25548693537712097,-0.5898465514183044,-0.7660335898399353,-0.005606234073638916,-0.005139410495758057,-0.006274700164794922,0.932105054989879,0.32855574553750766,-0.0950490329027793,0.11915110640904136
1715270011596145400,3.7991455078125,-0.029743295162916183,0.055391013622283936,-0.03231886029243469,-0.25490787625312805,-0.5895780324935913,-0.7664331197738647,-0.006658315658569336,-0.006598114967346191,0.0002588033676147461,0.9322170654394493,0.3283325777879154,-0.0947689952042887,0.11911294410414808
1715270011606135300,3.80913525390625,-0.04031045362353325,0.047735221683979034,-0.03784705325961113,-0.25444111227989197,-0.5891326665878296,-0.7669305205345154,-0.00967329740524292,-0.00518190860748291,0.01010984182357788,0.932356855088019,0.32801310150003155,-0.09456293380449529,0.11906277367654095
1715270011616125400,3.81912548828125,-0.028134213760495186,0.035233013331890106,-0.03687207028269768,-0.25409454107284546,-0.5886688232421875,-0.7674014568328857,-0.005320131778717041,-0.0007171630859375,0.021033048629760742,0.9324911707448502,0.32769336333355675,-0.09442636290440361,0.11900005099070449
1715270011626115300,3.829115234375,-0.022597236558794975,0.021915344521403313,-0.02960829623043537,-0.25397178530693054,-0.5883322358131409,-0.7677001953125,-0.005656510591506958,0.003188192844390869,0.031036376953125,0.9325790084169405,0.3274726689661895,-0.09440105022480694,0.11893955603360462
1715270011636106500,3.8391064453125,-0.018191302195191383,0.015151447616517544,-0.022396989166736603,-0.2539520263671875,-0.5881599187850952,-0.7678386569023132,-0.005691498517990112,0.00029987096786499023,0.03424191474914551,0.9326234973076023,0.32736125221368484,-0.09442071591040177,0.1188810168237146
1715270011646096400,3.849096435546875,-0.02417888678610325,0.009050678461790085,-0.025612490251660347,-0.253973126411438,-0.5879770517349243,-0.7679718136787415,-0.005975604057312012,0.0001932382583618164,0.03548884391784668,0.9326667706533893,0.32724738703144035,-0.09446297041365358,0.11882171813543835
1715270011656086500,3.85908642578125,-0.02861400879919529,-0.00005520228296518326,-0.03026636503636837,-0.2539515495300293,-0.5877922773361206,-0.7681203484535217,-0.006088733673095703,0.0070885419845581055,0.03488975763320923,0.9327203947497015,0.32712325759763,-0.09449978346499505,0.11871336201528065
1715270011666076400,3.869076416015625,-0.022950265556573868,-0.006888074800372124,-0.032340433448553085,-0.2538776099681854,-0.5877000093460083,-0.7682154178619385,-0.006345778703689575,0.0127488374710083,0.03915047645568848,0.9327643091858449,0.32704582716370095,-0.09451622092650838,0.11856884678547042
1715270011676066600,3.879066650390625,-0.0343213751912117,-0.011969918385148048,-0.025022532790899277,-0.25387170910835266,-0.587641716003418,-0.7682619094848633,-0.002140253782272339,0.006312370300292969,0.04052448272705078,0.9327955149952872,0.32699523443534684,-0.09456828663258068,0.11842063933593805
1715270011686056700,3.889056640625,-0.04365096241235733,-0.02274160645902157,-0.023584425449371338,-0.2540043890476227,-0.5875148773193359,-0.7683150768280029,0.004355370998382568,0.0014095306396484375,0.03371119499206543,0.9328290809527332,0.32691665790952207,-0.09469935554837439,0.11826832117500158
1715270011696046600,3.899046630859375,-0.07552948594093323,-0.03338546305894852,-0.01519140787422657,-0.25421297550201416,-0.5872410535812378,-0.7684553861618042,0.011140495538711548,-0.00016123056411743164,0.028099000453948975,0.932887988846127,0.3267556642304242,-0.09488432817526948,0.11810060883447726
1715270011706036500,3.909036376953125,-0.10391372442245483,-0.03741509094834328,-0.016428979113698006,-0.25451454520225525,-0.5867300629615784,-0.7687458395957947,0.017454028129577637,-0.004609048366546631,0.024040639400482178,0.9329877348664348,0.3264607402120019,-0.09513390154001208,0.11792693890204586
1715270011716027600,3.919027587890625,-0.11503513157367706,-0.0444817878305912,-0.018962310627102852,-0.25482237339019775,-0.5860777497291565,-0.7691413164138794,0.021118760108947754,-0.0044068098068237305,0.026847004890441895,0.9331179446165736,0.326079757934699,-0.09540093870165496,0.11773454698659264
1715270011726017800,3.929017822265625,-0.1304287314414978,-0.0537586435675621,-0.014748124405741692,-0.25520604848861694,-0.5852989554405212,-0.7696070671081543,0.021990716457366943,0.0009941458702087402,0.026809215545654297,0.9332695801563333,0.32562824673441787,-0.09572208775590224,0.11752210009309999
1715270011736007700,3.939007568359375,-0.13341647386550903,-0.06845396757125854,-0.007939619943499565,-0.25570231676101685,-0.5843939781188965,-0.7701298594474792,0.022776901721954346,0.0005774497985839844,0.026767432689666748,0.9334370066264316,0.3251117397156841,-0.09611151786731545,0.11730464419894426
1715270011745998600,3.94899853515625,-0.1320825070142746,-0.06573355197906494,0.002658695448189974,-0.25627508759498596,-0.58345627784729,-0.770650327205658,0.024860292673110962,-0.0008026957511901855,0.02791351079940796,0.9335992818077774,0.3245868203139892,-0.09653105096668692,0.11712187907073607
1715270011755988500,3.958988525390625,-0.12047340720891953,-0.06329116225242615,0.013143894262611866,-0.25686386227607727,-0.5825503468513489,-0.7711394429206848,0.021664857864379883,-0.000899970531463623,0.025701820850372314,0.9337470896745864,0.32408773584489897,-0.09694024572425236,0.11698763793136313
1715270011765978600,3.968978515625,-0.10756266862154007,-0.05536612868309021,0.007697196677327156,-0.2573924958705902,-0.5817334055900574,-0.7715797424316406,0.015983223915100098,0.0055463314056396484,0.0193215012550354,0.9338790875469859,0.3236384298618217,-0.09730516879796561,0.11687422048409091
1715270011775968500,3.978968505859375,-0.08357936143875122,-0.0625084638595581,0.006653303746134043,-0.2578544020652771,-0.5810763835906982,-0.7719205617904663,0.0155295729637146,0.020193815231323242,0.011071562767028809,0.9339863829138704,0.3232769113231738,-0.09763068264108121,0.11674658756814876
1715270011785959700,3.988959716796875,-0.07092508673667908,-0.055027641355991364,0.004888693802058697,-0.25826969742774963,-0.5805700421333313,-0.772162675857544,0.014235854148864746,0.0262182354927063,0.006125688552856445,0.9340667994501128,0.3230013601343143,-0.09792234691905471,0.11662128407106265
1715270011795949800,3.99894970703125,-0.06355644017457962,-0.050987359136343,-0.0013165383134037256,-0.2585816979408264,-0.5801699757575989,-0.7723588943481445,0.019522279500961304,0.016540884971618652,-0.00002568960189819336,0.9341374675267613,0.3227771895311289,-0.0981603330969214,0.11647542215613493
1715270011805939700,4.008939697265625,-0.07595105469226837,-0.040417272597551346,0.001380711211822927,-0.2588266134262085,-0.5797529220581055,-0.7725900411605835,0.025946974754333496,0.004725456237792969,-0.003395676612854004,0.934215728629612,0.322537788401081,-0.09835834108161436,0.11634420808453305
1715270011815929600,4.0189296875,-0.08311054110527039,-0.028753425925970078,-0.010299447923898697,-0.2589224874973297,-0.579252302646637,-0.7729333639144897,0.020503908395767212,-0.016633927822113037,-0.008637070655822754,0.9343255062136551,0.3222326950422737,-0.0984856486574702,0.11620046691268021
1715270011825920500,4.02892041015625,-0.06747432053089142,-0.035058993846178055,-0.011831297539174557,-0.25891315937042236,-0.5788900256156921,-0.7732078433036804,0.012117475271224976,-0.01635533571243286,-0.00836259126663208,0.9344234254504068,0.32199453822031526,-0.09856773517811379,0.11600374824603188
1715270011835910700,4.03891064453125,-0.062157802283763885,-0.04447699338197708,0.00023255590349435806,-0.25903671979904175,-0.5785854458808899,-0.7733944654464722,0.006168067455291748,-0.013531863689422607,-0.004239201545715332,0.9344939331143272,0.32180703126239535,-0.09870672108829041,0.11583814533392778
1715270011845900500,4.048900634765625,-0.072750523686409,-0.04295846074819565,-0.0035597854293882847,-0.2592402696609497,-0.5782036185264587,-0.7736117243766785,0.007271915674209595,-0.020535945892333984,-0.010155975818634033,0.9345689675513391,0.32158418156373697,-0.098882590041913,0.11570074594580915
1715270011855890700,4.058890625,-0.08180452883243561,-0.04195631295442581,-0.009281320497393608,-0.2593725919723511,-0.5775675773620605,-0.7740423083305359,0.008487582206726074,-0.017204761505126953,-0.012548208236694336,0.9347042757742241,0.32119997994658483,-0.09904245812115915,0.11553825628921371
1715270011865881600,4.068881591796875,-0.05715271085500717,-0.042590945959091187,-0.0005080692353658378,-0.2595032751560211,-0.5769006013870239,-0.7744958400726318,0.006176859140396118,-0.009448885917663574,-0.014810800552368164,0.9348411659930251,0.32080114638144563,-0.09919028543680619,0.1154125424835335
1715270011875871700,4.078871826171875,-0.041827816516160965,-0.040603961795568466,0.00924189668148756,-0.2595807909965515,-0.5764210820198059,-0.7748267650604248,0.007169902324676514,-0.005655944347381592,-0.022704362869262695,0.9349413926997878,0.32051236919765663,-0.0992896342099591,0.1153166311726137
1715270011885861600,4.088861572265625,-0.01844845712184906,-0.039327774196863174,0.009023517370223999,-0.25955837965011597,-0.5762060284614563,-0.7749942541122437,0.004294097423553467,0.003681004047393799,-0.029967904090881348,0.9349973276843604,0.32037236265295516,-0.0993198075157072,0.11522667222338684
1715270011895851500,4.0988515625,0.014253136701881886,-0.029571816325187683,0.028920991346240044,-0.25957155227661133,-0.5763546824455261,-0.7748792767524719,-0.0004839897155761719,0.019225776195526123,-0.029853999614715576,0.9349703630169094,0.320459024118546,-0.09932960091371049,0.11519584805271116
1715270011905842400,4.108842529296875,0.01079155970364809,-0.015223236754536629,0.038566164672374725,-0.25971081852912903,-0.5765349268913269,-0.7746985554695129,-0.007409542798995972,0.023235976696014404,-0.030095815658569336,0.9349109701202708,0.3205895227270669,-0.09936341699200056,0.11528593498199458
1715270011915832800,4.118832763671875,0.025332897901535034,0.0005884837592020631,0.03209774196147919,-0.25984418392181396,-0.5767217874526978,-0.7745146751403809,-0.014798790216445923,0.025436997413635254,-0.02605295181274414,0.9348454330524107,0.3207279786966402,-0.09937921966843015,0.11541830812335929
1715270011925822700,4.12882275390625,0.059348125010728836,0.005264994688332081,0.0373055525124073,-0.2598420977592468,-0.577134907245636,-0.774207592010498,-0.021896183490753174,0.035997211933135986,-0.018532276153564453,0.9347442537239505,0.3209907133785197,-0.09930335093706832,0.11557283589240469
1715270011935813600,4.138813720703125,0.06934616714715958,0.013771130703389645,0.04226349666714668,-0.2598193883895874,-0.5776498913764954,-0.7738310694694519,-0.027061134576797485,0.03887730836868286,-0.018389999866485596,0.9346180520410603,0.3213178281278439,-0.09919328535682141,0.11577898605482329
1715270011945803500,4.148803466796875,0.058320146054029465,0.020796816796064377,0.04716184735298157,-0.25979653000831604,-0.5780331492424011,-0.7735524773597717,-0.026244699954986572,0.029281318187713623,-0.02082008123397827,0.9345125936606034,0.3215708978204552,-0.09907532451154011,0.11602770695032871
1715270011955793700,4.158793701171875,0.02862429991364479,0.032814331352710724,0.040622059255838394,-0.25966575741767883,-0.5781691074371338,-0.7734948396682739,-0.023110121488571167,0.01913285255432129,-0.017017245292663574,0.9344651119272602,0.321666739203677,-0.09890956521462238,0.11628601414896139
1715270011965783600,4.168783447265625,-0.00007419055327773094,0.04303740710020065,0.0361386239528656,-0.2594735324382782,-0.5779767036437988,-0.7737030982971191,-0.02197486162185669,0.009479999542236328,-0.01751089096069336,0.9344895895276623,0.3215596871477785,-0.09873100471878145,0.11653721193633226
1715270011975774700,4.178774658203125,-0.024287652224302292,0.04889769107103348,0.03443247079849243,-0.2592970132827759,-0.5774930715560913,-0.7741232514381409,-0.01775681972503662,-0.0019136667251586914,-0.02060025930404663,0.9345687523905365,0.32128181680956985,-0.09857167445940737,0.11680244994280581
1715270011985764900,4.188764892578125,-0.04100963845849037,0.056530579924583435,0.027456054463982582,-0.25914067029953003,-0.576805830001831,-0.7746878266334534,-0.01785212755203247,-0.012198686599731445,-0.01754850149154663,0.9346880799117698,0.32088322302970934,-0.09843801217142348,0.11705658789449436
1715270011995754800,4.198754638671875,-0.035068124532699585,0.06202201545238495,0.02221568487584591,-0.2589396834373474,-0.5761330127716064,-0.7752554416656494,-0.020967543125152588,-0.017311811447143555,-0.015134572982788086,0.9348117045905484,0.3204860207577559,-0.0982902963764043,0.11728099469275116
1715270012005744600,4.20874462890625,-0.027193158864974976,0.05729437246918678,0.017029711976647377,-0.25880226492881775,-0.5755277276039124,-0.7757507562637329,-0.02307334542274475,-0.011599957942962646,-0.01302182674407959,0.9349141156120784,0.32013700792589894,-0.09816778906271846,0.11752055606344253
1715270012015735600,4.218735595703125,-0.018295643851161003,0.055441081523895264,0.006019205786287785,-0.2586900293827057,-0.5749806761741638,-0.7761936783790588,-0.019462406635284424,-0.011567115783691406,-0.008520066738128662,0.9350072918319154,0.3198211805171877,-0.09806918953052289,0.11772082665206296
1715270012025725700,4.2287255859375,-0.017053013667464256,0.055742282420396805,0.003880154574289918,-0.25853514671325684,-0.5745536088943481,-0.7765614986419678,-0.010645151138305664,-0.0076760053634643555,0.0031087398529052734,0.9350851869964086,0.3195687457559504,-0.09795448073511882,0.117883210735794
1715270012035715600,4.238715576171875,-0.017980273813009262,0.05029425397515297,-0.0002993439557030797,-0.25838592648506165,-0.574203610420227,-0.7768699526786804,-0.008017271757125854,-0.01132190227508545,0.010466814041137695,0.9351495902557442,0.3193608125561677,-0.09784520410418929,0.11802656863923339
1715270012045705500,4.24870556640625,-0.027506668120622635,0.04373755306005478,-0.019723907113075256,-0.2582019865512848,-0.5738831758499146,-0.7771678566932678,-0.003944039344787598,-0.02095019817352295,0.010047495365142822,0.9352211705539304,0.3191588316961239,-0.09774307551114261,0.11809041581161461
1715270012055696600,4.258696533203125,-0.034154824912548065,0.03343138471245766,-0.040131911635398865,-0.2578904926776886,-0.5736308097839355,-0.7774575352668762,0.006242573261260986,-0.021706104278564453,0.01177150011062622,0.9353063415545897,0.31897194715505556,-0.09761217420423939,0.11802908768353437
1715270012065686800,4.268686767578125,-0.04602053761482239,0.029035305604338646,-0.05152731016278267,-0.2575460970401764,-0.5734335780143738,-0.7777171730995178,0.013817459344863892,-0.02330714464187622,0.009666025638580322,0.9353954104778537,0.31880485599246694,-0.09749292638275708,0.11787339405882152
1715270012075676700,4.2786767578125,-0.054917093366384506,0.024146806448698044,-0.07320278137922287,-0.2571720480918884,-0.5732648968696594,-0.7779653072357178,0.01324501633644104,-0.031761348247528076,0.0048635005950927734,0.9354933548147221,0.31864208177248055,-0.0973887939146623,0.11762240275802388
1715270012085667600,4.28866748046875,-0.0685812383890152,0.022160621359944344,-0.08358883857727051,-0.2567470073699951,-0.5729882121086121,-0.7783093452453613,0.011309385299682617,-0.03481513261795044,0.003529071807861328,0.9356274431979854,0.31840141846655146,-0.09729270605297739,0.11728521175269119
1715270012095657500,4.298657470703125,-0.06963153928518295,0.029347959905862808,-0.08999700844287872,-0.2562206983566284,-0.5726742148399353,-0.7787138223648071,0.00640377402305603,-0.03570890426635742,0.003399491310119629,0.935783983482403,0.31812380874950047,-0.09716137751671064,0.11689876870078403
1715270012105647600,4.308647705078125,-0.05115079879760742,0.034435395151376724,-0.10269203037023544,-0.255533367395401,-0.5725173950195312,-0.7790549397468567,0.0037328600883483887,-0.03423309326171875,0.0054038166999816895,0.9359282750840967,0.3179203128470799,-0.09694953097221166,0.11647221711487271
1715270012115637500,4.318637451171875,0.0014341175556182861,0.03446974977850914,-0.10935971885919571,-0.25475412607192993,-0.5727001428604126,-0.7791757583618164,-0.00028127431869506836,-0.026558279991149902,0.006134986877441406,0.9360174878975984,0.3179069088820786,-0.09668155845012788,0.1160133169389721
1715270012125628700,4.328628662109375,0.06827652454376221,0.024776645004749298,-0.10665660351514816,-0.25397300720214844,-0.5734609365463257,-0.7788711786270142,-0.0047397613525390625,-0.0029093027114868164,0.00804293155670166,0.9359922146645131,0.3182378562379097,-0.09637989142582368,0.11556033482979422
1715270012135618600,4.33861865234375,0.11058057844638824,0.014217742718756199,-0.11218273639678955,-0.2531585693359375,-0.5747198462486267,-0.7782081365585327,-0.007720947265625,0.01768249273300171,0.010156989097595215,0.9358729468468405,0.31886088707777327,-0.09603996280316708,0.11509118528333157
1715270012145608700,4.348608642578125,0.1059354916214943,0.008615784347057343,-0.10577890276908875,-0.25231632590293884,-0.5761293768882751,-0.7774389982223511,-0.003451526165008545,0.019366681575775146,0.012042880058288574,0.9357264572560899,0.3195707188555986,-0.09568203292048695,0.11460984556385756
1715270012155598600,4.3585986328125,0.08495798707008362,0.010546042583882809,-0.10502436012029648,-0.2514829933643341,-0.5774253606796265,-0.7767472267150879,-0.0019807517528533936,0.012804388999938965,0.00910806655883789,0.9356010358145752,0.32021440498840503,-0.09533694108942158,0.11412401455641435
1715270012165589500,4.368589599609375,0.05217234045267105,0.012734096497297287,-0.09486652910709381,-0.2506798207759857,-0.5784880518913269,-0.7762159109115601,-0.0035468637943267822,0.005734145641326904,0.0037549734115600586,0.9355162391919097,0.32072440529568647,-0.09501523025762763,0.11365403510373062
1715270012175579600,4.37857958984375,0.012607516720890999,0.014140245504677296,-0.08522049337625504,-0.2500000298023224,-0.5792226195335388,-0.7758873105049133,-0.0036315619945526123,-0.0026407241821289062,-0.00403517484664917,0.9354790030753793,0.32105638425965555,-0.09475836207256014,0.11323730992770004
1715270012185569800,4.38856982421875,0.20830963551998138,-0.024095291271805763,-0.050741877406835556,-0.24974432587623596,-0.5802216529846191,-0.7752229571342468,-0.0032768994569778442,-0.0036101341247558594,-0.011077702045440674,0.9353477552748902,0.32158983141121084,-0.09470220474000492,0.1128539162781777
1715270012195560700,4.398560791015625,0.17838898301124573,0.032290488481521606,-0.050910189747810364,-0.24935282766819,-0.582129716873169,-0.7739174365997314,-0.0008302927017211914,0.009558916091918945,-0.008309125900268555,0.9350110626912519,0.3226828946455011,-0.09442998222362108,0.11275259480529842
1715270012205550600,4.408550537109375,0.16799919307231903,0.010070934891700745,-0.0781460702419281,-0.24889668822288513,-0.5835028290748596,-0.773029625415802,-0.03644266724586487,0.012702107429504395,0.006733238697052002,0.9347879409102037,0.3234494842735539,-0.09415736404719799,0.11263327076873153
1715270012215540700,4.418540771484375,0.07267975062131882,-0.06040776148438454,-0.14699231088161469,-0.24863074719905853,-0.5846145749092102,-0.772274911403656,-0.08408713340759277,0.027180492877960205,0.01823139190673828,0.9346420970701994,0.3240432268190496,-0.09411976213306127,0.11216739390405922
1715270012225530600,4.428530517578125,-0.19138839840888977,-0.040948305279016495,-0.14594143629074097,-0.24836106598377228,-0.5843297839164734,-0.772577166557312,-0.002630755305290222,0.01639765501022339,0.04708284139633179,0.9348155820762379,0.32376937874432216,-0.09425925222133967,0.11139259801033496
1715270012235521500,4.438521484375,-0.29546305537223816,-0.0313582643866539,-0.1389179527759552,-0.24788430333137512,-0.5825695395469666,-0.7740582227706909,0.05756142735481262,-0.07838022708892822,0.04508483409881592,0.9353078473715248,0.32258993839145844,-0.09437490045946442,0.11058177940673514
1715270012245511700,4.44851171875,-0.2152358740568161,-0.10461756587028503,-0.120032399892807,-0.24766436219215393,-0.5808393359184265,-0.7754276394844055,0.05097857117652893,-0.06988698244094849,0.05417519807815552,0.9357721655964386,0.32145133292704264,-0.09463200332203969,0.10974658560865502
1715270012255501800,4.458501708984375,-0.0541163869202137,-0.18452703952789307,-0.07652753591537476,-0.2482924461364746,-0.5799920558929443,-0.7758608460426331,0.02078387141227722,-0.002588510513305664,0.027966558933258057,0.9359761409802992,0.32092630147065115,-0.09526742035776338,0.10899134004447558
1715270012265491700,4.46849169921875,0.05597576126456261,-0.17892934381961823,-0.03865871578454971,-0.2494073361158371,-0.5801880955696106,-0.7753565311431885,0.0371423214673996,0.061831772327423096,-0.0028722286224365234,0.93590781888811,0.3210866159290781,-0.09604749697081048,0.10841953498029822
1715270012275482600,4.478482666015625,0.08095424622297287,-0.11537300050258636,-0.0073499297723174095,-0.2504570484161377,-0.580735981464386,-0.7746075987815857,0.061721086502075195,0.09655934572219849,-0.02339649200439453,0.9357438312458389,0.3214774904243356,-0.09668717924723375,0.10810740946760161
1715270012285472500,4.488472412109375,0.12527883052825928,0.03872841224074364,0.023154715076088905,-0.25094014406204224,-0.5814803242683411,-0.7738925814628601,0.032281726598739624,0.07675015926361084,-0.03258019685745239,0.935547352671174,0.3219714314043203,-0.0968923012188424,0.10815475615889247
1715270012295462700,4.498462646484375,0.13528448343276978,0.280883252620697,0.05254795774817467,-0.25031518936157227,-0.5823562741279602,-0.7734361290931702,-0.008275508880615234,0.0675399899482727,-0.02563607692718506,0.9353675743939605,0.3224896306079322,-0.09634500989145461,0.10865339364971383
1715270012305452500,4.50845263671875,-0.02366521582007408,0.2518811523914337,-0.08248389512300491,-0.24787691235542297,-0.5828920602798462,-0.773817777633667,-0.057436197996139526,0.07237875461578369,-0.023316621780395508,0.9354083323264347,0.322640347581745,-0.09483836511083797,0.10917995331625374
