time,seconds_elapsed,rotationRateX,rotationRateY,rotationRateZ,gravityX,gravityY,gravityZ,accelerationX,accelerationY,accelerationZ,quaternionW,quaternionX,quaternionY,quaternionZ
1715269884133298200,0.466298095703125,-0.045354213565588,0.01073725800961256,-0.054599400609731674,0.052695903927087784,-0.15825316309928894,-0.9859914183616638,-0.009605102241039276,0.0005536377429962158,-0.010346472263336182,0.9964916751299736,0.0794051583199203,0.026440715060909153,-5.551115123125783e-17
1715269884143289300,0.476289306640625,-0.04060627892613411,0.014079525135457516,-0.04314494505524635,0.05296008661389351,-0.15805190801620483,-0.9860095381736755,-0.0073973648250103,0.005158901214599609,-0.019529402256011963,0.9964962722207416,0.07931008081714483,0.026554423432328503,-0.00023527358184882718
1715269884153279200,0.486279296875,-0.04141321778297424,0.007917236536741257,-0.021801305934786797,0.053231000900268555,-0.1580502688884735,-0.9859952330589294,-0.006035584956407547,0.010940343141555786,-0.019269049167633057,0.996492583084301,0.07931363945561068,0.02667839551324052,-0.0003867766691147412
1715269884163270400,0.4962705078125,-0.04482552409172058,0.008557461202144623,0.00270470161922276,0.05345273017883301,-0.1580980122089386,-0.9859755635261536,-0.0010388083755970001,0.01217825710773468,-0.015031516551971436,0.9964876117793267,0.07932763774840026,0.026820569975203754,0
1715269884173260500,0.506260498046875,-0.04427318274974823,0.0036905338056385517,0.02592000924050808,0.05358274653553963,-0.15809297561645508,-0.9859693050384521,0.006506349891424179,0.009487688541412354,-0.011116266250610352,0.9964860531203872,0.07932291366630788,0.026892696848353524,0.00008602302703186737
1715269884183250400,0.51625048828125,-0.04364590346813202,0.006747842766344547,0.04282582178711891,0.05360995605587959,-0.1580105721950531,-0.9859810471534729,0.008493300527334213,0.011449933052062988,-0.0070456862449646,0.9964889810724737,0.07927648758799895,0.02692052029141981,0.00026518938295294614
1715269884193240300,0.526240234375,-0.04069139063358307,0.007746261544525623,0.06441234052181244,0.05347207188606262,-0.15787214040756226,-0.986010730266571,0.0049233026802539825,0.017888054251670837,-0.0006988644599914551,0.9964963692178235,0.07919911866413261,0.026872737812509744,0.0005372475708274038
1715269884203230500,0.53623046875,-0.034755900502204895,0.0067164176143705845,0.0739993155002594,0.05326145514845848,-0.1576555222272873,-0.9860567450523376,0.0022347494959831238,0.020295947790145874,0.009906232357025146,0.9965075903988614,0.07907995999691714,0.02679508445585048,0.0008950167053028979
1715269884213221400,0.546221435546875,-0.031313229352235794,0.012284554541110992,0.0682133361697197,0.053075168281793594,-0.1573369801044464,-0.9861176609992981,0.004267346113920212,0.019306018948554993,0.015017867088317871,0.9965225104211383,0.07890904628944892,0.026730454664137843,0.0012662127713903293
1715269884223211300,0.556211181640625,-0.033174142241477966,0.018687326461076736,0.04897299408912659,0.053019117563962936,-0.1569395661354065,-0.9861840605735779,0.004369169473648071,0.013400182127952576,0.01935666799545288,0.9965387685997148,0.07870019119208926,0.02672570652575447,0.001571072700449816
1715269884233201200,0.566201171875,-0.04342677816748619,0.0200833547860384,0.03643803298473358,0.05304575711488724,-0.15640920400619507,-0.9862668514251709,-0.005209464579820633,0.010184288024902344,0.0277860164642334,0.9965590727584468,0.07842616447875564,0.026756514401307063,0.0018051165635533106
1715269884243191300,0.57619140625,-0.04269701614975929,0.02008628472685814,0.02530541829764843,0.05318392813205719,-0.1558161973953247,-0.9863532781600952,-0.008139997720718384,0.0030757635831832886,0.033213019371032715,0.9965805106001666,0.07812237822591765,0.0268376105019571,0.0019696673634452266
1715269884253181200,0.58618115234375,-0.04001947492361069,0.02905261516571045,0.0067365276627242565,0.05349072441458702,-0.15529654920101166,-0.986418604850769,-0.004387956112623215,-0.0005566775798797607,0.03234755992889404,0.996596652563885,0.07785764870225502,0.026997600099033948,0.00205959458773447
1715269884263171000,0.596171142578125,-0.0323060043156147,0.027961784973740578,-0.010103105567395687,0.053895264863967896,-0.1547883301973343,-0.986476480960846,-0.004258442670106888,0.002734541893005371,0.026057779788970947,0.996611174422151,0.07760103997109126,0.027199875568193966,0.002062688461363482
1715269884273161200,0.6061611328125,-0.014443648979067802,0.02766803838312626,-0.017527999356389046,0.05426045507192612,-0.15435032546520233,-0.9865251183509827,-0.007568575441837311,0.006462186574935913,0.018217623233795166,0.9966235300283794,0.07738155088454263,0.027377804181959703,0.0020048149991439557
1715269884283152400,0.61615234375,0.00938999094069004,0.017040161415934563,-0.0217269379645586,0.05453049764037132,-0.1540967971086502,-0.9865498542785645,-0.0056260935962200165,0.009977579116821289,0.004799365997314453,0.9966299860180823,0.07725623504041018,0.02750545108164102,0.0019093356321840949
1715269884293142300,0.626142333984375,0.03554303199052811,0.00715450756251812,-0.02857152745127678,0.05474408343434334,-0.15413489937782288,-0.9865320920944214,0.00024857744574546814,0.01650068163871765,-0.006265759468078613,0.9966256917320755,0.07727896581353058,0.027603058654344696,0.0017841337817477987
1715269884303132400,0.63613232421875,0.04570309817790985,-0.002874957397580147,-0.02807997539639473,0.054858192801475525,-0.15440906584262848,-0.9864828586578369,0.004071235656738281,0.01791924238204956,-0.011655569076538086,0.9966136212841524,0.07742142661169477,0.027649524913997605,0.0016377541955633346
1715269884313122300,0.646122314453125,0.05887935683131218,-0.007271836511790752,-0.028410207480192184,0.05476424843072891,-0.15484340488910675,-0.9864199757575989,0.008147727698087692,0.010769963264465332,-0.020492255687713623,0.9965980953890696,0.0776445961524937,0.02759205131508236,0.001494788846366557
1715269884323112200,0.6561123046875,0.05442851781845093,-0.021717088297009468,-0.026784414425492287,0.05455435439944267,-0.15542694926261902,-0.9863398671150208,0.008922189474105835,0.0048685222864151,-0.020908057689666748,0.9965781126365385,0.07794296371771153,0.027476780468508898,0.001354580106474823
1715269884333102300,0.666102294921875,0.042849890887737274,-0.03236014395952225,-0.017438583076000214,0.05427855625748634,-0.1559668779373169,-0.9862698316574097,0.010540764778852463,0.0005408972501754761,-0.018674015998840332,0.9965606976908712,0.07821871216781633,0.027329856782692365,0.0012347824589203915
1715269884343092200,0.67609228515625,0.032042838633060455,-0.0425291582942009,-0.010289260186254978,0.05388735607266426,-0.1563308984041214,-0.986233651638031,0.010993003845214844,-0.00837242603302002,-0.012911856174468994,0.9965517399574458,0.0784049151296482,0.027126520987937778,0.0011390151420859196
1715269884353083400,0.68608349609375,0.018725702539086342,-0.043480705469846725,-0.004391424357891083,0.053376682102680206,-0.15650147199630737,-0.9862343668937683,0.0098099485039711,-0.015999093651771545,-0.0076926350593566895,0.9965519965681242,0.07849221501344708,0.026866169469900877,0.0010853790997770174
1715269884363073300,0.6960732421875,0.02536586858332157,-0.03480572625994682,0.002677537500858307,0.05292399600148201,-0.15654346346855164,-0.9862520694732666,0.006402157247066498,-0.014705866575241089,-0.002547919750213623,0.9965564389854469,0.07851365161384097,0.0266375755892678,0.0010679609715211202
1715269884373063400,0.7060634765625,0.022505367174744606,-0.02667349763214588,-0.0005550074274651706,0.05262969806790352,-0.15652094781398773,-0.9862714409828186,-0.001756913959980011,-0.011829212307929993,0.0020337700843811035,0.996561327335201,0.07850262719871481,0.02648829442657202,0.0010491398811682817
1715269884383053300,0.71605322265625,0.024771610274910927,-0.020177515223622322,0.0009034061804413795,0.05248003825545311,-0.1564655303955078,-0.9862881898880005,-0.008275341242551804,-0.010312989354133606,0.004202008247375488,0.9965655668639326,0.0784750428313414,0.026411666932930854,0.0010314040326690477
1715269884393043200,0.726043212890625,0.018555525690317154,-0.01661979779601097,0.005807350855320692,0.0524245984852314,-0.15650026500225067,-0.9862856268882751,-0.013499438762664795,-0.006005793809890747,0.009677350521087646,0.9965649647145199,0.07849255909183102,0.026383847506766964,0.0010309163605803917
1715269884403033300,0.736033447265625,0.006746857427060604,-0.007874775677919388,0.003361903363838792,0.05243334174156189,-0.15651488304138184,-0.9862828254699707,-0.013401370495557785,-0.0015813857316970825,0.013733386993408203,0.9965642211406451,0.07849966513094098,0.026389101638066813,0.0010415891490394014
1715269884413023200,0.746023193359375,-0.01148274540901184,0.00788075104355812,0.0021914439275860786,0.052588190883398056,-0.15643444657325745,-0.9862873554229736,-0.013556219637393951,-0.0010667294263839722,0.017171144485473633,0.9965652979298327,0.0784591684227229,0.02646664022968063,0.0010405437078044866
1715269884423014100,0.75601416015625,-0.03112766146659851,0.01775015890598297,0.0009728481527417898,0.05284089967608452,-0.15628188848495483,-0.9862980246543884,-0.013686861842870712,-0.0023026615381240845,0.017715871334075928,0.9965679546780363,0.07838209487597632,0.026593840273513657,0.001047680913285165
1715269884433004000,0.766004150390625,-0.04911252111196518,0.028948752209544182,-0.0023190854117274284,0.05319281667470932,-0.15607613325119019,-0.986311674118042,-0.012360312044620514,-0.006124749779701233,0.017531156539916992,0.9965714222757591,0.07827808946198177,0.02677111627675995,0.0010593098474444562
1715269884442994400,0.775994384765625,-0.05628872662782669,0.03821708634495735,0.005344226956367493,0.05359470844268799,-0.1557406187057495,-0.9863429665565491,-0.010366570204496384,-0.007803037762641907,0.018828928470611572,0.996579262896247,0.07810814096701699,0.02697463714556582,0.0010883632535653165
1715269884452984300,0.785984375,-0.051868945360183716,0.038890864700078964,0.012376038357615471,0.05394640192389488,-0.15537269413471222,-0.9863818287849426,-0.005179323256015778,-0.0082014799118042,0.019432365894317627,0.9965889342638553,0.07792038629789401,0.027156934651266142,0.0011691382968131991
1715269884462974200,0.79597412109375,-0.03814125433564186,0.030834536999464035,0.0033261501230299473,0.05414072051644325,-0.15507642924785614,-0.986417829990387,-0.0004297979176044464,-0.0038743317127227783,0.013898909091949463,0.9965978757972995,0.0777690416202149,0.0272593880894001,0.0012381239605473993
1715269884472964400,0.80596435546875,-0.012065978720784187,0.0184769369661808,0.0003420783905312419,0.05418739095330238,-0.15494753420352936,-0.9864354729652405,0.003918062895536423,0.0065711140632629395,0.008698046207427979,0.9966022968991207,0.07770318900920464,0.02728490566226712,0.001267706077215991
1715269884482954200,0.815954345703125,-0.0003524376079440117,0.009602218866348267,-0.0011223938781768084,0.05416254699230194,-0.15496014058589935,-0.9864348769187927,0.0030731596052646637,0.013953715562820435,0.0015258193016052246,0.996602134516011,0.07770909627114672,0.027273716957055688,0.0012839118086229173
1715269884492945200,0.825945068359375,0.011192099191248417,0.0013631973415613174,-0.006360831670463085,0.05404556170105934,-0.15509112179279327,-0.9864206910133362,0.0009470954537391663,0.014817118644714355,-0.004454553127288818,0.9965985050648967,0.07777538903917723,0.02721459184540941,0.001275986823486952
1715269884502935300,0.835935302734375,0.020148150622844696,-0.0014357850886881351,-0.003150524105876684,0.053873639553785324,-0.1553417444229126,-0.9863906502723694,0.0034536123275756836,0.01427428424358368,-0.00608670711517334,0.9965910179135838,0.0779024005715906,0.027127042509795276,0.0012547363512920295
1715269884512925200,0.84592529296875,0.013235915452241898,0.001162394997663796,-0.0037111195269972086,0.05372549593448639,-0.15562793612480164,-0.9863536357879639,0.006684035062789917,0.005588307976722717,-0.007573366165161133,0.9965816980713416,0.07804718514652437,0.027052080055026566,0.0012410522871085239
1715269884522915300,0.855915283203125,-0.00020591076463460922,-0.001066404627636075,-0.004346217028796673,0.05363280698657036,-0.15584005415439606,-0.986325204372406,0.0033129826188087463,-0.0014322400093078613,-0.007342398166656494,0.9965745738999232,0.07815467648986618,0.027004602822614233,0.0012244677250269898
1715269884532905200,0.8659052734375,-0.021931178867816925,-0.002793730702251196,-0.002918229904025793,0.053569428622722626,-0.1558641493320465,-0.9863248467445374,0.0018962547183036804,-0.0037579983472824097,-0.0031618475914001465,0.9965745953861278,0.07816673238545487,0.026973025062995863,0.001227092949700248
1715269884542895400,0.875895263671875,-0.044202450662851334,-0.004162329249083996,-0.0011813828023150563,0.05354775860905647,-0.15558522939682007,-0.9863700270652771,0.0029250048100948334,-0.008065223693847656,-0.0004006028175354004,0.9965859513375976,0.07802608263401975,0.02696119858289959,0.0012210265444864143
1715269884552885200,0.88588525390625,-0.059200841933488846,-0.0039495425298810005,-0.0030416008085012436,0.05356862023472786,-0.15500181913375854,-0.9864607453346252,0.0023853443562984467,-0.01171565055847168,0.0049697160720825195,0.996608683317045,0.07773167203163894,0.026970449962873018,0.0012179606725379877
1715269884562876200,0.895876220703125,-0.07681802660226822,0.000954135786741972,-0.005915617570281029,0.05361483618617058,-0.15415433049201965,-0.9865910410881042,-0.0008957311511039734,-0.011495038866996765,0.008136451244354248,0.9966413371152218,0.07730442502950924,0.026990806086142533,0.0011996133402192855
1715269884572866300,0.9058662109375,-0.09871959686279297,0.0007424145005643368,-0.007142535876482725,0.05365850031375885,-0.1531272977590561,-0.9867485761642456,-0.005410227924585342,-0.007776573300361633,0.006829202175140381,0.996680933509482,0.07678688712782518,0.027008788439567145,0.001170704878916795
1715269884582856200,0.915856201171875,-0.12015969306230545,-0.000500216381624341,-0.003956729546189308,0.05370944365859032,-0.1518925130367279,-0.986936628818512,-0.006544545292854309,-0.009179219603538513,0.006803631782531738,0.996728030969783,0.07616437859638112,0.027030743698546786,0.0011498656448813427
1715269884592846000,0.92584619140625,-0.14045722782611847,-0.0007276504766196012,0.003169889561831951,0.053773585706949234,-0.1505746692419052,-0.9871350526809692,-0.004472449421882629,-0.008849114179611206,0.006483197212219238,0.9967778202223976,0.07549900784316851,0.02706214105800902,0.001167562574572567
1715269884602836500,0.93583642578125,-0.16244514286518097,0.0027477748226374388,0.010873815044760704,0.05380798131227493,-0.14915092289447784,-0.9873493313789368,0.00016233697533607483,-0.009342089295387268,0.006148159503936768,0.9968315399098738,0.07477938032037884,0.02708095520415655,0.0012190462774485655
1715269884612826400,0.945826416015625,-0.2062711864709854,-0.0017220745794475079,0.020863331854343414,0.053804684430360794,-0.14746931195259094,-0.9876020550727844,0.002378161996603012,-0.010626956820487976,0.004066288471221924,0.9968948189569269,0.07392850224963704,0.02708393740060216,0.0013187699286528187
1715269884622816300,0.955816162109375,-0.27711448073387146,0.0053531453013420105,0.045262351632118225,0.05379249155521393,-0.14530600607395172,-0.9879233241081238,0.005655739456415176,-0.012836039066314697,0.0011984705924987793,0.9969750435957383,0.07283225858487596,0.027088577122930026,0.0015156679116449245
1715269884632807200,0.96580712890625,-0.4155791401863098,0.014668350107967854,0.06393350660800934,0.05385446920990944,-0.14223067462444305,-0.9883673787117004,0.006844978779554367,-0.01665903627872467,-0.004476189613342285,0.9970859070433771,0.07127312100455524,0.027137403582999552,0.0018392383346221286
1715269884642797300,0.97579736328125,-0.6622127890586853,0.014942388981580734,0.08199426531791687,0.053898610174655914,-0.13725455105304718,-0.989068329334259,0.0028182901442050934,-0.03013432025909424,-0.021399199962615967,0.9972606585526564,0.06875358917501677,0.02718066161912765,0.00228204740868021
1715269884652787200,0.985787109375,-0.8353307247161865,0.018666554242372513,0.08536982536315918,0.05388008430600166,-0.13007667660713196,-0.9900388717651367,-0.001496676355600357,-0.05623309314250946,-0.03439044952392578,0.9975025899559645,0.06512396377172361,0.027192400427357634,0.0028322647175654803
1715269884662777000,0.995777099609375,-0.8582912683486938,0.09403587877750397,0.07982398569583893,0.054262369871139526,-0.1221279427409172,-0.9910299777984619,0.008619081228971481,-0.10284759849309921,-0.045270681381225586,0.9977491990661124,0.06110894356079044,0.02739931876674811,0.0033786003682104715
1715269884672767200,1.005767333984375,-0.960780918598175,0.12430855631828308,0.08619853109121323,0.055306386202573776,-0.11344549804925919,-0.9920036792755127,0.02939513325691223,-0.15278981626033783,-0.0632331371307373,0.9979910295428103,0.056726190033530535,0.027933748386805762,0.003956501577127736
1715269884682757000,1.015757080078125,-1.2005388736724854,0.014490184374153614,0.13109275698661804,0.056135982275009155,-0.10297024250030518,-0.9930991530418396,0.03439439833164215,-0.15934357047080994,-0.0881386399269104,0.998262259472033,0.05144153243032042,0.02835849134184661,0.004689217749163255
1715269884692747300,1.025747314453125,-1.3417987823486328,-0.10960540175437927,0.12005316466093063,0.055327486246824265,-0.09025559574365616,-0.9943805932998657,0.04765406996011734,-0.12040720880031586,-0.08516347408294678,0.998579073806378,0.04503833562073286,0.027950736086799495,0.005490376094901439
1715269884702738200,1.03573828125,-1.365980863571167,-0.09999804198741913,0.20277342200279236,0.054040372371673584,-0.07701398432254791,-0.9955644011497498,0.10037855803966522,-0.1265992671251297,-0.07512956857681274,0.9988698930147777,0.038375463416596395,0.027296912848072577,0.0064071619519558975
1715269884712728300,1.045728271484375,-1.7539563179016113,0.31454214453697205,0.19914565980434418,0.053971484303474426,-0.062444042414426804,-0.9965881109237671,0.16113165020942688,-0.1521860510110855,-0.10193789005279541,0.9991168611041839,0.031039560451757722,0.027248875267202797,0.007702080113467902
1715269884722718200,1.05571826171875,-1.2583160400390625,1.0607539415359497,-0.035685230046510696,0.06775663793087006,-0.04678519815206528,-0.996604323387146,0.13713836669921875,-0.05579960718750954,-0.187111496925354,0.999112744323339,0.02311597656305457,0.03410994791691245,0.008711041389692809
1715269884732708000,1.0657080078125,-0.714336097240448,-0.29779529571533203,-0.10754583775997162,0.0703207477927208,-0.03659072518348694,-0.9968531131744385,0.05449613183736801,-0.07815533876419067,-0.2784154415130615,0.9991767570634997,0.01800969770390561,0.03534259176706954,0.008502255547552628
1715269884742698200,1.0756982421875,-0.1005045548081398,0.4532044231891632,-0.1145869717001915,0.0705489069223404,-0.033120620995759964,-0.996958315372467,0.1901627480983734,-0.17223213613033295,-0.46971648931503296,0.9992066805233402,0.01628738729203407,0.03543395498051974,0.008066976426918837
1715269884752688000,1.085688232421875,-0.3802371323108673,0.5899249911308289,-0.29613810777664185,0.07659510523080826,-0.030829492956399918,-0.9965855479240417,0.23463839292526245,0.1351538598537445,-0.38891249895095825,0.9991209404482906,0.015156123242098756,0.03843857122410291,0.00707482760639383
1715269884762678300,1.09567822265625,-0.63042813539505,0.501520574092865,-0.16923876106739044,0.08168714493513107,-0.02530987560749054,-0.9963365793228149,-0.08133622258901596,0.09752975404262543,-0.6175702214241028,0.9990652252301517,0.012417887018037504,0.040957250104257915,0.006071176305001147
1715269884772669400,1.10566943359375,-0.5204675197601318,0.7807103991508484,-0.26482120156288147,0.08807668834924698,-0.019430404528975487,-0.995924174785614,0.11002814769744873,-0.20258495211601257,-0.4687517285346985,0.9989668878808368,0.009494949981372486,0.04413343476955643,0.005212868996840148
1715269884782659300,1.115659423828125,-0.3069113790988922,0.8492851853370667,-0.31057772040367126,0.09634824842214584,-0.014933925122022629,-0.9952356219291687,0.25263547897338867,-0.19963513314723969,-0.4268834590911865,0.9988006441885189,0.007289080116476065,0.048260193634096796,0.0038670501761446374
1715269884792649200,1.125649169921875,-0.08126172423362732,0.9204539060592651,-0.30591610074043274,0.10510382056236267,-0.01285261008888483,-0.9943782091140747,0.07270683348178864,-0.08097365498542786,-0.5595005750656128,0.9985905092982292,0.006307947981947618,0.052641354441476836,0.0024172674726459786
1715269884802639400,1.135639404296875,-0.04188070446252823,1.0229458808898926,-0.32518234848976135,0.11479142308235168,-0.011958103626966476,-0.9933176636695862,0.044723935425281525,-0.020390499383211136,-0.5497121214866638,0.998327488293808,0.005937970216260531,0.05749714541727772,0.0008872231001827435
1715269884812629200,1.145629150390625,-0.14160729944705963,1.1480516195297241,-0.3247935473918915,0.12556670606136322,-0.010696543380618095,-0.9920275211334229,0.06571745872497559,-0.005767662078142166,-0.5611798763275146,0.99800460615927,0.0054021662063304735,0.06290516935114102,-0.0006853960267388381
1715269884822619100,1.155619140625,-0.1644170582294464,1.293238639831543,-0.32829856872558594,0.13770343363285065,-0.008653443306684494,-0.9904357194900513,0.053382351994514465,-0.06002634018659592,-0.5540589094161987,0.9976035481330262,0.004491374509504889,0.06900707448941515,-0.002230054932601422
1715269884832609300,1.165609375,-0.05591535195708275,1.412717342376709,-0.34448206424713135,0.15113456547260284,-0.00703263096511364,-0.9884881973266602,0.030017748475074768,-0.09628460556268692,-0.5459203720092773,0.997110536824991,0.0038179425548542853,0.07577158085432824,-0.003835149314041164
1715269884842599200,1.17559912109375,0.05279594659805298,1.5078811645507812,-0.360905259847641,0.16557803750038147,-0.006488456856459379,-0.9861753582954407,-0.005147159099578857,-0.061916664242744446,-0.5563203692436218,0.9965221278955473,0.0037204812850947927,0.0830571256091697,-0.0055782518485647525
1715269884852590300,1.18559033203125,0.11774485558271408,1.6014281511306763,-0.3687770366668701,0.1809135228395462,-0.006714614573866129,-0.9834761023521423,-0.03030930459499359,-0.01914900541305542,-0.5644670128822327,0.9958328010755637,0.004047575780086812,0.09080514894350925,-0.007415895403707962
1715269884862580200,1.195580322265625,0.12335831671953201,1.6838617324829102,-0.37253376841545105,0.19705478847026825,-0.007243009749799967,-0.9803656935691833,-0.05008216202259064,0.005762934684753418,-0.5459251999855042,0.9950359230223649,0.00456254558651864,0.09897638526244533,-0.009278899176508315
1715269884872570400,1.2055703125,0.1429373323917389,1.7319270372390747,-0.3762568533420563,0.2138112485408783,-0.007746681105345488,-0.9768442511558533,-0.06587731838226318,0.0035200268030166626,-0.5167623162269592,0.9941314141276946,0.005103449287908332,0.10747938744080622,-0.011166407229977582
1715269884882560300,1.215560302734375,0.1807759553194046,1.7566614151000977,-0.37178874015808105,0.23084555566310883,-0.0084732910618186,-0.9729534983634949,-0.07863917946815491,-0.000636175274848938,-0.4626238942146301,0.993129341859692,0.005793733465014529,0.11614508636894474,-0.013063669801645583
1715269884892550100,1.225550048828125,0.2584553062915802,1.7600382566452026,-0.39030835032463074,0.247946098446846,-0.009699367918074131,-0.9687252640724182,-0.08379209041595459,0.000773012638092041,-0.4021090865135193,0.9920364425882726,0.0067812726316014565,0.12486545215333573,-0.015036869625587423
1715269884902540300,1.235540283203125,0.3257506787776947,1.7314311265945435,-0.39298439025878906,0.26485389471054077,-0.011526626534759998,-0.9642196297645569,-0.08605146408081055,0.01444108784198761,-0.3567489981651306,0.9908669097154135,0.008121019533083564,0.13350738026609327,-0.01710419482072878
1715269884912530200,1.2455302734375,0.3723437488079071,1.708435297012329,-0.4086799919605255,0.2814367711544037,-0.013827354647219181,-0.9594801664352417,-0.09498965740203857,0.0233641117811203,-0.3091355562210083,0.9896306990495647,0.009750452263552756,0.14200301578318708,-0.019264868878355712
1715269886311151400,2.6441513671875,2.170727014541626,-0.8129339814186096,-1.6779004335403442,-0.08266442269086838,-0.5600559115409851,-0.8243203163146973,0.04827115684747696,0.04986315965652466,0.07525110244750977,0.572791109152014,0.21047343120638173,0.20866429770684622,0.7642449972385659
1715269886321141500,2.6541416015625,2.413814067840576,-0.8809553384780884,-1.630085825920105,-0.08015616983175278,-0.5801290273666382,-0.8105709552764893,0.046388499438762665,0.10991424322128296,0.05909085273742676,0.57751260544491,0.2185178367463655,0.21671289117388737,0.7561511401289772
1715269886331131400,2.66413134765625,2.61580228805542,-0.9523933529853821,-1.590575933456421,-0.07801609486341476,-0.601638913154602,-0.7949491143226624,0.032239750027656555,0.16900652647018433,0.027035236358642578,0.5817586392770663,0.22749395551929358,0.22532631836523198,0.7476839477630576
1715269886341121500,2.67412158203125,2.671891927719116,-1.0200268030166626,-1.5267091989517212,-0.0762411579489708,-0.6236922144889832,-0.777942955493927,0.02315586805343628,0.19221949577331543,-0.010402381420135498,0.585601170279492,0.23711283575727143,0.23410684127844497,0.7389470101769166
1715269886351111400,2.684111328125,2.6041977405548096,-1.0671234130859375,-1.450783371925354,-0.07484310865402222,-0.6451410055160522,-0.7603890895843506,0.0184924453496933,0.1708521842956543,-0.032747507095336914,0.5890999397488496,0.24693470975705464,0.24254632297205164,0.7301751128358311
1715269886361102300,2.694102294921875,2.476747751235962,-1.137449026107788,-1.3808715343475342,-0.07385250180959702,-0.6652967929840088,-0.7429171800613403,0.0323028564453125,0.13406217098236084,-0.04687774181365967,0.5923951766186257,0.25669686755696264,0.2502960703275374,0.7214752481304509
1715269886371092200,2.70409228515625,2.361557960510254,-1.1655712127685547,-1.311328411102295,-0.0732937678694725,-0.68404620885849,-0.7257471084594727,0.05576145648956299,0.09252405166625977,-0.06418514251708984,0.5955166965313925,0.2663266261087493,0.25728695963984716,0.7129049281294433
1715269886381082400,2.714082275390625,2.287649154663086,-1.1648143529891968,-1.2552485466003418,-0.07275556772947311,-0.7016347646713257,-0.7088124752044678,0.0740678682923317,0.057729244232177734,-0.06360262632369995,0.5984248626678154,0.27570650827460486,0.263779585522156,0.7044811782999054
1715269886391072300,2.724072265625,2.216383218765259,-1.1627167463302612,-1.2071819305419922,-0.07217884063720703,-0.7183125019073486,-0.6919662356376648,0.08147148042917252,0.041890501976013184,-0.0688217282295227,0.601125782388322,0.2849016042860818,0.26990363516922516,0.6961542189763554
1715269886401062400,2.7340625,2.1524243354797363,-1.1883124113082886,-1.1798940896987915,-0.07156798243522644,-0.7340869307518005,-0.6752734780311584,0.07532167434692383,0.05998426675796509,-0.09268617630004883,0.6036927389200653,0.29391853100413173,0.27563592764414213,0.6878892511525007
1715269886411052500,2.744052490234375,2.0625994205474854,-1.185279130935669,-1.1479995250701904,-0.07084163278341293,-0.7489546537399292,-0.6588233709335327,0.06789673119783401,0.10689550638198853,-0.09764641523361206,0.6062319792629322,0.3027365006528718,0.280960744169134,0.6796280104845164
1715269886421042400,2.75404248046875,1.9655210971832275,-1.1846755743026733,-1.0950373411178589,-0.07006757706403732,-0.7628689408302307,-0.6427451968193054,0.0639641061425209,0.12476176023483276,-0.09336930513381958,0.6085634932961785,0.3112536617711905,0.2859170473826939,0.6715823453327172
1715269886431032300,2.7640322265625,1.7347075939178467,-1.1655213832855225,-1.0349849462509155,-0.06934919208288193,-0.7753904461860657,-0.6276625990867615,0.062452249228954315,0.10494983196258545,-0.0960618257522583,0.6108921560181092,0.3193011748093301,0.29019901224656147,0.6638086909102356
1715269886441023200,2.774023193359375,1.4608036279678345,-1.1420027017593384,-0.9547233581542969,-0.06874313950538635,-0.78599613904953,-0.6143974661827087,0.055407002568244934,0.09307944774627686,-0.10423046350479126,0.6132793563803358,0.32654300665427377,0.2935488596055959,0.6565720928311851
1715269886451013400,2.784013427734375,1.2272508144378662,-1.0736913681030273,-0.8764360547065735,-0.06826766580343246,-0.794766366481781,-0.6030635833740234,0.04336535930633545,0.09003931283950806,-0.10164833068847656,0.6156866857618853,0.3329245348739415,0.2960227167379194,0.6499703591402828
1715269886461003300,2.794003173828125,1.0137720108032227,-1.0007704496383667,-0.8165901899337769,-0.06769880652427673,-0.8020780682563782,-0.5933697819709778,0.04595506191253662,0.07153308391571045,-0.09683108329772949,0.6180416051329138,0.33847400014163587,0.2979101747670762,0.6439794101832548
1715269886470993400,2.803993408203125,0.783552885055542,-0.9134137034416199,-0.7717031240463257,-0.06695370376110077,-0.8078895807266235,-0.5855181217193604,0.049146734178066254,0.042142629623413086,-0.11075562238693237,0.620504785207578,0.3431383309686204,0.29916051225423007,0.6385395080159926
1715269886480983600,2.813983642578125,0.5579836964607239,-0.8217844367027283,-0.6734167337417603,-0.06611737608909607,-0.8122690916061401,-0.5795233845710754,0.030991673469543457,0.05422776937484741,-0.15167784690856934,0.6229502563762579,0.3468819061614953,0.29985204291407147,0.6337937861220776
1715269886490973400,2.823973388671875,0.38778162002563477,-0.7186101078987122,-0.606261134147644,-0.06541607528924942,-0.8153795003890991,-0.5752189755439758,0.016099706292152405,0.06629514694213867,-0.16709065437316895,0.6252884041973357,0.3498213423770797,0.300025877227876,0.6297807295810606
1715269886500963300,2.83396337890625,0.32233548164367676,-0.6313567161560059,-0.5856608152389526,-0.0644134134054184,-0.8177794218063354,-0.5719156265258789,0.03945007175207138,0.05836498737335205,-0.16435152292251587,0.6275460126723292,0.3521378504969217,0.3000685488578819,0.6262136457378454
1715269886510954500,2.84395458984375,0.31991493701934814,-0.5899363160133362,-0.5714610815048218,-0.06314609944820404,-0.8199642300605774,-0.5689211487770081,0.05991126596927643,0.06991851329803467,-0.16844463348388672,0.6297001425367312,0.3541681639981422,0.30017385097210364,0.6228469703448868
1715269886520944400,2.8539443359375,0.3730822205543518,-0.5360972881317139,-0.5548862814903259,-0.061738520860672,-0.822253942489624,-0.5657621026039124,0.06442409753799438,0.1046026349067688,-0.17950773239135742,0.6316961590378156,0.3561618464191403,0.3004457954604325,0.61954899753045
1715269886530934300,2.863934326171875,0.46280068159103394,-0.4641701579093933,-0.5315865278244019,-0.06008152663707733,-0.8249548077583313,-0.5619960427284241,0.07476052641868591,0.12608718872070312,-0.16412395238876343,0.6333803822580719,0.35822028542075307,0.30113152945823224,0.6163011301610154
1715269886540924400,2.87392431640625,0.508950412273407,-0.4021137058734894,-0.4934016466140747,-0.05825832113623619,-0.8279818296432495,-0.5577203631401062,0.07605010271072388,0.11745643615722656,-0.13861453533172607,0.6347307764696688,0.3603136032653985,0.3021819516523918,0.613169595331467
1715269886550914300,2.883914306640625,0.5544651746749878,-0.35581785440444946,-0.4699309468269348,-0.05640183016657829,-0.8312050700187683,-0.553097665309906,0.06772388517856598,0.11396574974060059,-0.11697685718536377,0.6358092997407409,0.3624382902171592,0.3034627941544343,0.6101600952209737
1715269886560904200,2.893904296875,0.6026366949081421,-0.32180848717689514,-0.44534972310066223,-0.054456885904073715,-0.83464115858078,-0.5480954647064209,0.0682661235332489,0.1245734691619873,-0.10284459590911865,0.6366672730893861,0.36461278251750084,0.30497506405148955,0.6072087881110791
1715269886570894600,2.90389453125,0.5893629789352417,-0.31061041355133057,-0.3958287537097931,-0.05267319828271866,-0.8381494283676147,-0.5428912043571472,0.07276906073093414,0.10612446069717407,-0.09571963548660278,0.6373244457690866,0.366848518298484,0.30655595056718604,0.6043698943478479
1715269886580885500,2.913885498046875,0.5429875254631042,-0.2655145823955536,-0.3651289641857147,-0.0510619580745697,-0.8413968682289124,-0.5379998087882996,0.07611693441867828,0.07819819450378418,-0.08642035722732544,0.6378735134419637,0.36894156314475834,0.30802956993598696,0.6017616501679399
1715269886590875400,2.92387548828125,0.512903094291687,-0.22047331929206848,-0.3462783098220825,-0.04936107248067856,-0.8444037437438965,-0.5334282517433167,0.07087599486112595,0.06904375553131104,-0.06290054321289062,0.6383371344085973,0.3708029270092818,0.3095013033508313,0.5993661172077865
1715269886600865300,2.933865234375,0.48375239968299866,-0.2010977566242218,-0.3201722204685211,-0.04765094444155693,-0.8472026586532593,-0.5291285514831543,0.06101766973733902,0.05824702978134155,-0.0519413948059082,0.6387346886460725,0.37249468976459865,0.31093957803503314,0.5971450656757984
1715269886610855400,2.94385546875,0.45860975980758667,-0.1838463395833969,-0.30992943048477173,-0.04599254950881004,-0.8498482704162598,-0.525016725063324,0.05819961056113243,0.041102051734924316,-0.0530015230178833,0.6390824589219277,0.37408831689479194,0.3123292652366552,0.5950478006871016
1715269886620845300,2.95384521484375,0.4330005645751953,-0.17259714007377625,-0.2968862056732178,-0.04434340074658394,-0.8523123264312744,-0.5211499333381653,0.060838185250759125,0.036806464195251465,-0.05378597974777222,0.639424048565841,0.3755626442002382,0.31365226980043115,0.5930528726824007
1715269886630835200,2.963835205078125,0.41993454098701477,-0.16558584570884705,-0.2850894629955292,-0.042750921100378036,-0.8546618223190308,-0.5174219012260437,0.05613291263580322,0.04120063781738281,-0.0527837872505188,0.639745403348691,0.3769798772413692,0.31492099652285793,0.5911316081284302
1715269886640825300,2.973825439453125,0.4165838956832886,-0.16765271127223969,-0.2671426832675934,-0.041236747056245804,-0.8569287657737732,-0.5137825012207031,0.05031575635075569,0.045405447483062744,-0.04580312967300415,0.6400393920420833,0.3783686969299182,0.3161421758406613,0.5892713141002258
1715269886650816500,2.98381640625,0.40912944078445435,-0.17840921878814697,-0.23248884081840515,-0.0399828776717186,-0.8591453433036804,-0.510167121887207,0.048009030520915985,0.04299861192703247,-0.027506887912750244,0.640265593428585,0.3798061875123943,0.31727541576954854,0.5874890375451035
1715269886660806400,2.993806396484375,0.4151492118835449,-0.18681709468364716,-0.2036990076303482,-0.03904188424348831,-0.8613169193267822,-0.5065656900405884,0.0435585156083107,0.04301869869232178,-0.01884019374847412,0.6404061984023972,0.38130664720651924,0.3183117746133813,0.5858008963643974
1715269886670796300,3.00379638671875,0.4031258523464203,-0.2072184979915619,-0.17920085787773132,-0.038370490074157715,-0.8634662628173828,-0.5029451251029968,0.0377754271030426,0.05322462320327759,-0.01589953899383545,0.6404944641313312,0.3828880458020128,0.3192556765721992,0.584157018941094
1715269886680786400,3.013786376953125,0.3455961048603058,-0.2225676327943802,-0.14832688868045807,-0.038039714097976685,-0.865412175655365,-0.49961453676223755,0.03723102807998657,0.04366546869277954,-0.024845361709594727,0.6405979749841781,0.38446139205941554,0.3199721417439365,0.5826160143036221
1715269886690776300,3.0237763671875,0.25820156931877136,-0.21617551147937775,-0.12597951292991638,-0.03796840086579323,-0.8669769167900085,-0.4968995749950409,0.039265431463718414,0.01573503017425537,-0.027941793203353882,0.640759231333063,0.38585995984321375,0.32040957689823807,0.5812720095941944
1715269886700766200,3.03376611328125,0.15916042029857635,-0.20907339453697205,-0.10929866880178452,-0.037997279316186905,-0.8680606484413147,-0.49500176310539246,0.038897573947906494,-0.011135399341583252,-0.02256113290786743,0.6410319572345755,0.3869554247851297,0.32056921832308144,0.5801540379291203
1715269886710756400,3.04375634765625,0.0676608607172966,-0.21216505765914917,-0.08541570603847504,-0.03821301832795143,-0.8686442971229553,-0.4939601719379425,0.024937905371189117,-0.02355217933654785,-0.018109560012817383,0.6414365517279311,0.38777175139201114,0.32039505321128664,0.5792572734520481
1715269886720747500,3.05374755859375,0.03620472177863121,-0.19988442957401276,-0.08084391802549362,-0.038529541343450546,-0.8689364194869995,-0.49342161417007446,0.014023955911397934,-0.020421981811523438,-0.0115223228931427,0.6418983306526769,0.3884092447422888,0.3200428960707942,0.5785129324414616
1715269886730737400,3.0637373046875,0.02145107463002205,-0.1990591138601303,-0.07523263990879059,-0.03883874788880348,-0.8690958619117737,-0.4931164085865021,0.010838896036148071,-0.019621670246124268,-0.012041151523590088,0.6423862589348274,0.3889434754441143,0.3196322400004653,0.5778390592030851
1715269886740727600,3.0737275390625,0.0598750039935112,-0.19922661781311035,-0.06999993324279785,-0.03919300436973572,-0.8693033456802368,-0.49272260069847107,0.0050438642501831055,-0.018224000930786133,-0.01702779531478882,0.6428399623278318,0.3895189512458701,0.3192392236781992,0.5771637856197375
1715269886750717400,3.083717529296875,0.09223906695842743,-0.20916926860809326,-0.06396680325269699,-0.03961322829127312,-0.8697062134742737,-0.4919774532318115,-0.00018166378140449524,-0.003767848014831543,-0.007152855396270752,0.6432047178439475,0.3902429164534309,0.3189384543385661,0.5764341203320085
1715269886760707300,3.093707275390625,0.10468380898237228,-0.2238592654466629,-0.0565006323158741,-0.040151163935661316,-0.8702250123023987,-0.4910152554512024,-0.005991380661725998,0.002717316150665283,-0.005032777786254883,0.6435299649738175,0.39109542788644514,0.31864829707862774,0.5756531339744777
1715269886770697500,3.103697509765625,0.08175931870937347,-0.2237655222415924,-0.05989030376076698,-0.04077127203345299,-0.8707084655761719,-0.49010640382766724,-0.005371272563934326,0.0005151629447937012,-0.004354685544967651,0.6438639765794539,0.391956384933559,0.318303294787331,0.5748845286037856
1715269886780687400,3.113687255859375,0.00572793185710907,-0.21486470103263855,-0.06550458073616028,-0.041335854679346085,-0.870968222618103,-0.4895973205566406,-0.004898242652416229,-0.010577678680419922,-0.004695892333984375,0.6442900782033765,0.39265022802262306,0.3178476557163146,0.5741853763054502
1715269886790678300,3.12367822265625,-0.06984991580247879,-0.18633319437503815,-0.06933020800352097,-0.04174251854419708,-0.8708222508430481,-0.48982253670692444,-0.010732423514127731,-0.024822771549224854,-0.011077791452407837,0.6448670934326063,0.39300631368529604,0.31722984090031087,0.5736354263063064
1715269886800668400,3.13366845703125,-0.11740662157535553,-0.15899904072284698,-0.08211484551429749,-0.04192177951335907,-0.8703982830047607,-0.4905601739883423,-0.018930241465568542,-0.03249460458755493,-0.01105731725692749,0.6455448844267712,0.39308078266082264,0.3165555468087911,0.5731943986414719
1715269886810658600,3.143658447265625,-0.14293809235095978,-0.1421625316143036,-0.09606900811195374,-0.041865523904561996,-0.8697845339775085,-0.49165233969688416,-0.023899823427200317,-0.036312758922576904,-0.01620599627494812,0.6463002763473447,0.39293571417225626,0.31587237526850087,0.5728193108865752
1715269886820648400,3.1536484375,-0.13983847200870514,-0.1348673403263092,-0.10772726684808731,-0.04167081415653229,-0.869134247303009,-0.49281755089759827,-0.024445489048957825,-0.031485140323638916,-0.022242963314056396,0.6470914791173175,0.39272262471786235,0.31521447462541274,0.5724345734965048
1715269886830638300,3.163638427734375,-0.11753477156162262,-0.13489609956741333,-0.12333258986473083,-0.041325394064188004,-0.8685316443443298,-0.4939078688621521,-0.02074733003973961,-0.012388646602630615,-0.019489407539367676,0.6478944257906468,0.39249746172092376,0.3146296308647851,0.572002377905576
1715269886840628500,3.17362841796875,-0.08372540771961212,-0.12904860079288483,-0.1332644522190094,-0.04091206192970276,-0.8680706024169922,-0.494751900434494,-0.017498552799224854,0.011564373970031738,-0.01672273874282837,0.6486627166869244,0.39235034594765555,0.31414209171156754,0.5715001789877096
1715269886850618400,3.183618408203125,-0.07511967420578003,-0.1361113041639328,-0.13675718009471893,-0.04047545790672302,-0.8677340745925903,-0.4953777492046356,-0.01424252986907959,0.023114442825317383,-0.014265894889831543,0.6493958823604539,0.39228360722512867,0.31372710346045085,0.5709410575136479
1715269886860609300,3.193609375,-0.05217248946428299,-0.13838830590248108,-0.1438988596200943,-0.04002683237195015,-0.8675292134284973,-0.4957728385925293,-0.010311882942914963,0.02348947525024414,-0.011795580387115479,0.6501008491290525,0.3923118637191327,0.3133767499439407,0.5703113471744741
1715269886870599200,3.20359912109375,-0.05153466761112213,-0.1193602979183197,-0.15277357399463654,-0.0395660437643528,-0.8674083948135376,-0.4960213005542755,-0.003295864909887314,0.02066779136657715,-0.01415640115737915,0.6507637264664032,0.39238566597822755,0.3130859840118143,0.5696640925643153
1715269886880589600,3.213589599609375,-0.06928399205207825,-0.11046160757541656,-0.17107628285884857,-0.03908606991171837,-0.8672881722450256,-0.4962693452835083,-0.0036232508718967438,0.014688253402709961,-0.025077730417251587,0.6514198486851963,0.3924492415159716,0.3128081295537315,0.5690225270250364
1715269886890579500,3.223579345703125,-0.1127646267414093,-0.08858773112297058,-0.17347125709056854,-0.03856779262423515,-0.8669845461845398,-0.49684011936187744,-0.005926806479692459,0.003840804100036621,-0.03424212336540222,0.6521239004749843,0.3923638966968451,0.3124588272049503,0.5684665855667288
1715269886900569300,3.2335693359375,-0.16954152286052704,-0.06313377618789673,-0.17933572828769684,-0.03792473301291466,-0.8663471937179565,-0.49799996614456177,-0.006768222898244858,-0.0057991743087768555,-0.036820560693740845,0.6529295417214633,0.3919940600417697,0.31199465824739536,0.5680517086702371
1715269886910559500,3.2435595703125,-0.20690646767616272,-0.04123406484723091,-0.17494738101959229,-0.03706160560250282,-0.8653978705406189,-0.49971285462379456,-0.006288588047027588,-0.011310994625091553,-0.025937259197235107,0.6538356652454608,0.3913217344978361,0.3114656878071657,0.5677634475958582
1715269886920549400,3.25354931640625,-0.1859031766653061,-0.019634230062365532,-0.17716866731643677,-0.0360344760119915,-0.8643341064453125,-0.5016254782676697,-0.0041724033653736115,-0.013671815395355225,-0.011115670204162598,0.6547586549088654,0.39049768883515873,0.3109643316643643,0.5675419637861119
1715269886930540300,3.263540283203125,-0.1457163393497467,-0.016711942851543427,-0.16716742515563965,-0.03492322936654091,-0.863426148891449,-0.5032649636268616,0.0025593675673007965,-0.015205323696136475,-0.003967761993408203,0.6555973974568523,0.3897328537247447,0.3106055575799062,0.5672957986081133
1715269886940530200,3.2735302734375,-0.07416871190071106,-0.0099368616938591,-0.15108072757720947,-0.03386731073260307,-0.8628061413764954,-0.5043991208076477,0.0009999051690101624,-0.0018940567970275879,-0.00776219367980957,0.656282540478304,0.3891570580303163,0.3104145885486613,0.5670032830300321
1715269886950520300,3.283520263671875,-0.007736158091574907,-0.026822367683053017,-0.13619817793369293,-0.03291168808937073,-0.8625386953353882,-0.5049195885658264,-0.006425440311431885,0.024144649505615234,-0.006555080413818359,0.6568029953346951,0.3888359157834417,0.310397868734419,0.5666299982598436
1715269886960510500,3.293510498046875,0.017952054738998413,-0.03501824662089348,-0.10676813125610352,-0.03224075958132744,-0.8623999357223511,-0.505199670791626,-0.0063029080629348755,0.0341225266456604,-0.006564915180206299,0.657225281308553,0.3886846197983232,0.3103617907541021,0.5662637118506614
1715269886970500400,3.303500244140625,0.01678372547030449,-0.036626797169446945,-0.0903763696551323,-0.03179999813437462,-0.8623020052909851,-0.5053946375846863,-0.004607442766427994,0.030469298362731934,-0.0036233067512512207,0.657562601494138,0.3886125431217341,0.3102949962564619,0.5659580140534894
1715269886980490500,3.313490478515625,-0.021477963775396347,-0.050164442509412766,-0.07173218578100204,-0.031563665717840195,-0.8621048331260681,-0.5057458281517029,0.005150727927684784,0.014784395694732666,0.009652018547058105,0.6578977336175723,0.38853384744856806,0.310110510895554,0.5657237741435346
1715269886990480400,3.32348046875,-0.05397385358810425,-0.05168457329273224,-0.05845499038696289,-0.03148733824491501,-0.8618270754814148,-0.5062238574028015,0.011330507695674896,-0.0030562281608581543,0.008497357368469238,0.6582348632280816,0.3884496070821441,0.30983054250178393,0.5655429441008542
1715269887000471300,3.33347119140625,-0.10665363073348999,-0.055390894412994385,-0.04280019924044609,-0.03147972375154495,-0.8614605069160461,-0.5068478584289551,0.01356593519449234,-0.007054448127746582,0.007183492183685303,0.6585777528680863,0.38831924617618646,0.3094902756400066,0.5654194963578162
1715269887010461400,3.34346142578125,-0.13992662727832794,-0.048103686422109604,-0.036981724202632904,-0.03141246736049652,-0.8609312176704407,-0.5077505707740784,0.008936300873756409,-0.005981504917144775,-0.0031442642211914062,0.6589757257235522,0.3880562384854401,0.30909071445605363,0.5653549404541373
1715269887020451300,3.353451416015625,-0.1574796885251999,-0.04473106190562248,-0.02143099345266819,-0.0314299613237381,-0.8601521849632263,-0.5090680122375488,0.00042413175106048584,-0.002167642116546631,-0.008937418460845947,0.6594228850323248,0.38763999181603076,0.30854695307592744,0.5654161271285248
1715269887030441200,3.363441162109375,-0.14580997824668884,-0.042336344718933105,-0.004342288710176945,-0.03172023594379425,-0.8592351675033569,-0.5105963349342346,-0.0037259049713611603,-0.0006890296936035156,-0.014016151428222656,0.659844298844065,0.38719971312222684,0.30786069043061903,0.5656002095313902
1715269887040431400,3.373431396484375,-0.09906314313411713,-0.04796919971704483,0.011885683052241802,-0.03212863579392433,-0.8584315776824951,-0.511920690536499,-0.0030581019818782806,0.0029782652854919434,-0.010280847549438477,0.6601784679810426,0.3868565489596451,0.30721598932727395,0.5657955116495877
1715269887050421500,3.38342138671875,-0.046814318746328354,-0.055988773703575134,0.02869262732565403,-0.032655466347932816,-0.8579314351081848,-0.5127252340316772,-0.0001356378197669983,0.010229527950286865,-0.006928145885467529,0.660371965708095,0.38674210354371535,0.3067049683241068,0.5659251857939708
1715269887060411400,3.393411376953125,0.01085148099809885,-0.06842999160289764,0.04338888078927994,-0.03315826505422592,-0.8579222559928894,-0.5127084255218506,0.003144253045320511,0.02074885368347168,-0.0040000081062316895,0.6603929336039024,0.38694161351448925,0.3064669118126317,0.5658934241274476
1715269887070402300,3.40340234375,0.046829190105199814,-0.07960915565490723,0.048366330564022064,-0.03369626775383949,-0.85821932554245,-0.5121759176254272,0.002797245979309082,0.03207796812057495,-0.003906905651092529,0.6603033801871727,0.3873551862971179,0.3063788322869353,0.5657626898355718
1715269887080392400,3.413392333984375,0.05133206024765968,-0.08040277659893036,0.05233097821474075,-0.034264836460351944,-0.8586221933364868,-0.5114622116088867,0.0026791729032993317,0.03281670808792114,-0.005856513977050781,0.6601753366613499,0.38785054378850287,0.30633452714864523,0.5655965188596705
1715269887090382300,3.42338232421875,0.03336770832538605,-0.0853051245212555,0.05964827910065651,-0.034949854016304016,-0.8588669896125793,-0.5110048055648804,0.002647027373313904,0.023967206478118896,-0.0033690333366394043,0.660084969798332,0.3882776394546668,0.3061667238452652,0.5654999358906896
1715269887100372200,3.433372314453125,0.00401914119720459,-0.08578714728355408,0.055410321801900864,-0.03581521287560463,-0.8589098453521729,-0.5108727812767029,0.0016508102416992188,0.015480399131774902,0.0015038251876831055,0.6600408974376207,0.3886290310806168,0.3058285459306754,0.5654928900022042
1715269887110362400,3.4433623046875,-0.04444053769111633,-0.09084875881671906,0.0523383654654026,-0.036724332720041275,-0.8586905002593994,-0.5111768245697021,0.002224244177341461,0.00883716344833374,0.0024945735931396484,0.6600963087743138,0.3888284094526556,0.30532613943939635,0.5655626466618405
1715269887120352300,3.453352294921875,-0.07824793457984924,-0.08248482644557953,0.056639574468135834,-0.03760121017694473,-0.8582461476325989,-0.5118588805198669,-0.0007440969347953796,0.0023655295372009277,0.0009946227073669434,0.6602410836707906,0.38887249727573037,0.3047109037353417,0.5656950893767438
1715269887130342400,3.46334228515625,-0.09006011486053467,-0.07405246794223785,0.05400490760803223,-0.03839024156332016,-0.8576852083206177,-0.5127399563789368,-0.006012804806232452,-0.00040793418884277344,0.0010058879852294922,0.6604225057641991,0.3888035355741577,0.30407539208218637,0.5658728207352373
1715269887140333300,3.473333251953125,-0.08686628937721252,-0.08228935301303864,0.045278795063495636,-0.03908009082078934,-0.8570812940597534,-0.5136966705322266,-0.010297320783138275,0.0036268234252929688,-0.000005781650543212891,0.6606383643211058,0.3886788662876461,0.30344753249345496,0.5660434518197978
1715269887150323500,3.483323486328125,-0.07124205678701401,-0.08438420295715332,0.041607361286878586,-0.03977148234844208,-0.8564967513084412,-0.5146177411079407,-0.008781954646110535,0.012670576572418213,0.0040891170501708984,0.6608791806368812,0.38858538933317177,0.30280772333037154,0.5661691554042886
1715269887160313300,3.493313232421875,-0.05110840126872063,-0.08134020864963531,0.041893716901540756,-0.04046568274497986,-0.8560250997543335,-0.5153478384017944,-0.001465439796447754,0.018149852752685547,0.009671509265899658,0.6610646966108993,0.3885594986586561,0.30223764873433795,0.5662748750881246
1715269887170303200,3.50330322265625,-0.05614017695188522,-0.07078902423381805,0.04990530386567116,-0.04113158956170082,-0.8556491732597351,-0.515919029712677,0.007455471903085709,0.015363097190856934,0.010807335376739502,0.6612014862440121,0.3885776578037262,0.30174141524978054,0.5663672677375464
1715269887180293400,3.51329345703125,0.8571268916130066,-0.8298240303993225,0.3088438808917999,-0.043372903019189835,-0.8564949035644531,-0.5143299102783203,0.016181770712137222,0.005939602851867676,0.007860064506530762,0.6609475085220747,0.39003763327191704,0.3011738721116793,0.5659622392498993
1715269887190283300,3.523283203125,0.8626734614372253,-0.5624751448631287,0.5357997417449951,-0.051109615713357925,-0.8618797063827515,-0.5045305490493774,0.02588687092065811,0.008059024810791016,0.001783907413482666,0.6582125622738088,0.39624842997588805,0.30120077079449475,0.564819749719715
1715269887200273200,3.533273193359375,0.5872530937194824,-0.4881836175918579,0.06778090447187424,-0.056807246059179306,-0.8651677966117859,-0.4982546269893646,-0.008561376482248306,0.011713266372680664,0.05913710594177246,0.6571269098368552,0.40081623816125395,0.30036483449313206,0.5633041213849638
1715269887210264300,3.543264404296875,0.37480419874191284,-0.2703663408756256,0.0010551399318501353,-0.05889001116156578,-0.8676004409790039,-0.4937622547149658,-0.020821865648031235,0.05629080533981323,0.009707659482955933,0.6565573400399323,0.4034940756120659,0.30051855770354857,0.5619727398800878
1715269887220252400,3.55325244140625,0.049994248896837234,-0.27726390957832336,-0.04551888629794121,-0.0599636510014534,-0.8686096668243408,-0.49185511469841003,0.10764739662408829,0.13557755947113037,0.08243119716644287,0.6566162738017433,0.40485583362211625,0.30027353692163633,0.5610548200381658
1715269887230242800,3.563242919921875,-0.026115965098142624,-0.1645815670490265,-0.0734407976269722,-0.06060151010751724,-0.8686540722846985,-0.49169856309890747,0.05187351256608963,-0.005537092685699463,0.008239030838012695,0.6571287793983318,0.40542895895680814,0.2996298961855107,0.5603846941532168
1715269887240232700,3.573232666015625,-0.19923847913742065,-0.01907975971698761,-0.11378868669271469,-0.060230012983083725,-0.8682004809379578,-0.4925444424152374,0.06987360119819641,-0.05913698673248291,0.010595589876174927,0.6577159514053078,0.4051890640065488,0.29924839184321433,0.5600729833171417
1715269887250222600,3.58322265625,-0.3795595169067383,0.10042905807495117,-0.130753293633461,-0.0589401014149189,-0.8668218851089478,-0.4951220154762268,-0.015888966619968414,-0.053191423416137695,-0.016367942094802856,0.6586225676665851,0.40392978573130484,0.29879712830935934,0.5601582005642474
1715269887260212700,3.593212646484375,-0.46291741728782654,0.2511277496814728,-0.04461660608649254,-0.057273197919130325,-0.8647797703742981,-0.49887433648109436,-0.04077975079417229,-0.060711443424224854,-0.025478720664978027,0.6594612382395177,0.40190845414835524,0.29838302901590774,0.5608457310812254
1715269887270203600,3.60320361328125,-0.48954370617866516,0.3224392235279083,0.03456609696149826,-0.05580568686127663,-0.8623726963996887,-0.5031886100769043,-0.01616998389363289,-0.07526445388793945,-0.021637380123138428,0.6599831125646424,0.3994994117178188,0.29800319948443943,0.5621533262679828
1715269887280193500,3.613193603515625,-0.521553099155426,0.29294151067733765,-0.18576307594776154,-0.054001759737730026,-0.8599244356155396,-0.5075566172599792,-0.053603190928697586,-0.0600583553314209,-0.03345906734466553,0.660610542044945,0.39699834638021575,0.2976810235007337,0.5633577686002303
1715269887290183400,3.623183349609375,-0.5677821040153503,0.2305186241865158,-0.12982071936130524,-0.050738636404275894,-0.8572348952293396,-0.5124194622039795,-0.06885971128940582,-0.025256991386413574,-0.03329586982727051,0.6618156468026759,0.3940397190505981,0.297528091340935,0.564100658505437
1715269887300173600,3.633173583984375,-0.419291228055954,0.04910222440958023,0.08230632543563843,-0.05008028447628021,-0.8545973896980286,-0.5168706774711609,-0.023573867976665497,-0.11508339643478394,-0.018239915370941162,0.6626204081710528,0.39197503385252,0.29651348635421865,0.5651279069359417
1715269887310163700,3.643163818359375,-0.04992116242647171,0.014355162158608437,-0.06260133534669876,-0.05009235069155693,-0.8533725738525391,-0.5188891291618347,0.04713217914104462,-0.11267650127410889,0.0029588937759399414,0.6629923239963409,0.391148338283952,0.2959027026281327,0.5655843945262017
1715269887320153600,3.653153564453125,0.1312800496816635,-0.004407872911542654,-0.050850868225097656,-0.04940442740917206,-0.8537246584892273,-0.5183756947517395,0.022594764828681946,0.14695292711257935,-0.0006520748138427734,0.6630805283306559,0.3912169177655898,0.2962456200378423,0.5652539688002871
1715269887330143700,3.663143798828125,0.07115305960178375,0.03452834114432335,0.01468233484774828,-0.04928121715784073,-0.8543120622634888,-0.5174188017845154,-0.07158362120389938,0.10657042264938354,-0.028983235359191895,0.6628728554397362,0.39155166732694036,0.29661067539271124,0.5650742723010767
1715269887340134700,3.673134765625,-0.04413783922791481,0.12521536648273468,-0.0369938425719738,-0.04879319667816162,-0.8543734550476074,-0.5173637270927429,-0.04486522078514099,0.008563637733459473,-0.019745707511901855,0.6627508476805707,0.39134607044114866,0.2969282712087305,0.5651930045844288
1715269887350124500,3.68312451171875,-0.0738145112991333,0.1316000372171402,-0.047492288053035736,-0.04770908132195473,-0.8540712594985962,-0.5179634094238281,-0.009694449603557587,-0.05399441719055176,-0.0012627840042114258,0.6628065522716657,0.39069350754025073,0.2972825092236549,0.5653929033097351
1715269887360114700,3.69311474609375,-0.049279287457466125,0.10690534114837646,-0.04012039303779602,-0.046751078218221664,-0.8537654876708984,-0.5185543894767761,-0.025285635143518448,-0.07244288921356201,-0.000793755054473877,0.6628689313585104,0.39009221670972555,0.297574954772872,0.5655809619505106
1715269887370104600,3.7031044921875,-0.03578371927142143,0.10628961026668549,-0.06327737867832184,-0.0457654669880867,-0.8535861372947693,-0.5189374685287476,-0.026362795382738113,-0.029592454433441162,0.002991974353790283,0.6629379944566918,0.3895900658795888,0.2979108173835383,0.5656692820507249
1715269887380094500,3.713094482421875,-0.07044374942779541,0.1144719123840332,-0.06711512058973312,-0.044648848474025726,-0.8533477783203125,-0.5194264054298401,-0.028593305498361588,0.003402888774871826,0.007432997226715088,0.6630549575110972,0.3890130224361597,0.2982543442333988,0.5657482731797654
1715269887390084900,3.7230849609375,-0.12221746146678925,0.11300477385520935,-0.073530413210392,-0.043446123600006104,-0.8528814911842346,-0.5202937126159668,-0.03057423233985901,-0.01249009370803833,0.012664198875427246,0.6632695804746691,0.38826424732245096,0.29850297476759535,0.5658800853386523
1715269887400074800,3.73307470703125,-0.13159163296222687,0.10341766476631165,-0.07883982360363007,-0.04223062843084335,-0.8522367477416992,-0.5214488506317139,-0.01724809780716896,-0.032360851764678955,0.025797545909881592,0.6635731050659615,0.3874106797201825,0.29864451729418784,0.5660344305541485
1715269887410065700,3.743065673828125,-0.09074699878692627,0.08092087507247925,-0.0878189355134964,-0.04104762151837349,-0.8516824841499329,-0.5224482417106628,-0.009001180529594421,-0.023637890815734863,0.038851380348205566,0.663890131625901,0.38665404303370304,0.2987884505882025,0.5661042951902451
1715269887420055600,3.7530556640625,-0.0553201362490654,0.04914297163486481,-0.08662804216146469,-0.03995181620121002,-0.851352870464325,-0.5230698585510254,-0.00934930145740509,-0.000636756420135498,0.04226529598236084,0.6641788603491103,0.3861050680101815,0.29897818066728854,0.5660399563152928
1715269887430045700,3.763045654296875,-0.0438712053000927,0.03579866886138916,-0.08310707658529282,-0.03903377801179886,-0.8511601686477661,-0.523452639579773,-0.006193242967128754,0.010492563247680664,0.04025256633758545,0.6644345219460788,0.3857223939596697,0.2991519830385261,0.5659090507566882
1715269887440035600,3.77303564453125,-0.04457630217075348,0.029792973771691322,-0.07728461176156998,-0.0382206030189991,-0.8509963750839233,-0.5237788558006287,-0.0018031671643257141,0.010191380977630615,0.04413402080535889,0.6646776731895938,0.38539865841164606,0.2992965761259048,0.5657675482388639
1715269887450025500,3.783025390625,-0.04621601104736328,0.01313756499439478,-0.07084215432405472,-0.03752217814326286,-0.8508066534996033,-0.5241374373435974,-0.0033103153109550476,0.006843149662017822,0.04241740703582764,0.6649289974375525,0.3851028965371168,0.29937774377887477,0.5656307282327626
1715269887460015600,3.793015625,-0.036895640194416046,-0.005049428436905146,-0.06316445767879486,-0.03699753060936928,-0.8506248593330383,-0.5244696736335754,-0.005406618118286133,0.00905698537826538,0.035120248794555664,0.6651782033709077,0.3848805454726331,0.29938626210306124,0.565484496200815
1715269887470006800,3.8030068359375,-0.0400426983833313,-0.026279082521796227,-0.05981739982962608,-0.03663133829832077,-0.8504840135574341,-0.5247238874435425,-0.004964090883731842,0.013020694255828857,0.03236842155456543,0.6654215967222377,0.38475063879895044,0.29934096290608886,0.5653105895823413
1715269887479996700,3.81299658203125,-0.053709935396909714,-0.03935094177722931,-0.05174056068062782,-0.03644174337387085,-0.8503619432449341,-0.5249347686767578,-0.0035667717456817627,0.012242555618286133,0.028062760829925537,0.6656641549163554,0.38470458213822745,0.29922399901929153,0.5651182048357881
1715269887489986600,3.822986572265625,-0.05295040085911751,-0.04199253395199776,-0.04325227066874504,-0.036387741565704346,-0.8503532409667969,-0.5249526500701904,-0.0028120651841163635,0.011409759521484375,0.029469192028045654,0.665849697654207,0.38477464895840513,0.29911892232394155,0.5649075750910971
1715269887499976700,3.832976806640625,-0.03522413223981857,-0.04545863717794418,-0.038470566272735596,-0.03639400750398636,-0.8503483533859253,-0.5249600410461426,-0.004240117967128754,0.011130332946777344,0.026241719722747803,0.6660188145881824,0.38486264796388786,0.29899951721951473,0.564711355227554
1715269887509966600,3.842966552734375,-0.03034788928925991,-0.053173813968896866,-0.03180094435811043,-0.036472138017416,-0.8503852486610413,-0.5248950123786926,-0.00864807516336441,0.008283257484436035,0.01659417152404785,0.6661675839667401,0.38500213587452914,0.29887430698393036,0.5645071124102975
1715269887519956500,3.85295654296875,-0.02229480817914009,-0.05471045896410942,-0.02596602588891983,-0.036580994725227356,-0.8504787683486938,-0.524735689163208,-0.011011138558387756,0.009963750839233398,0.011017978191375732,0.6662890314981236,0.38518622818297055,0.29877035448293865,0.5642930404811556
1715269887529946600,3.862946533203125,-0.018957868218421936,-0.048294637352228165,-0.023715652525424957,-0.03670478239655495,-0.8505638837814331,-0.5245890617370605,-0.009315699338912964,0.014107704162597656,0.009421765804290771,0.666400373461962,0.38536367092394064,0.2986641948739179,0.5640965604127801
1715269887539937800,3.872937744140625,-0.03297429531812668,-0.04242263361811638,-0.020527850836515427,-0.036841679364442825,-0.850575864315033,-0.5245602130889893,-0.010780971497297287,0.012349605560302734,0.002450108528137207,0.6665175768844727,0.3854885237416855,0.2985272229625896,0.5639454045114738
1715269887549927700,3.882927734375,-0.043184321373701096,-0.03815970942378044,-0.010590264573693275,-0.03698596730828285,-0.8504831194877625,-0.5247004628181458,-0.01448189839720726,0.008426904678344727,-0.00006461143493652344,0.6666435699279237,0.3855340397988735,0.29835093581619054,0.5638586865740063
1715269887559917600,3.89291748046875,-0.05013810098171234,-0.025784267112612724,-0.014745395630598068,-0.03710109740495682,-0.850315511226654,-0.5249637961387634,-0.014107372611761093,0.0067182183265686035,0.0017398595809936523,0.6667787933482143,0.3855111465325232,0.2981597704284903,0.563815500697635
1715269887569907700,3.90290771484375,-0.056901730597019196,-0.014965709298849106,-0.010472886264324188,-0.03712981194257736,-0.8501246571540833,-0.5252708196640015,-0.01583341509103775,0.005611836910247803,0.0031149983406066895,0.6669086715593975,0.38543267747588633,0.29800374838088406,0.5637980452830331
1715269887579897600,3.912897705078125,-0.04346395283937454,-0.011544611304998398,-0.013031784445047379,-0.03715795651078224,-0.8499458432197571,-0.5255581140518188,-0.01681235432624817,0.005341470241546631,0.006392955780029297,0.6670184119198111,0.3853534227468579,0.2978652225464249,0.5637956055361946
1715269887589887700,3.9228876953125,-0.031273867934942245,-0.011719848029315472,-0.015079755336046219,-0.037179820239543915,-0.849812924861908,-0.5257713198661804,-0.012380696833133698,0.00880962610244751,0.0066672563552856445,0.6671110811644734,0.38530087746105895,0.2977542342705022,0.5637803396347891
1715269887599877600,3.932877685546875,-0.04070524126291275,-0.010392528027296066,-0.01413919311016798,-0.03722052276134491,-0.8496571779251099,-0.5260201692581177,-0.008067537099123001,0.004152476787567139,0.004047393798828125,0.6672098117670513,0.38523974819677503,0.29762434422483713,0.5637739735751783
1715269887609868500,3.94286865234375,-0.05342236906290054,0.0009703810792416334,-0.024482909590005875,-0.03718467056751251,-0.8494197726249695,-0.5264060497283936,-0.0056467205286026,0.0018399357795715332,0.007118821144104004,0.6673434710098588,0.3851000310528732,0.2974810159262211,0.5637868905986801
1715269887619858700,3.952858642578125,-0.045215196907520294,-0.012420259416103363,-0.03278345242142677,-0.03708444908261299,-0.8491519093513489,-0.5268450379371643,-0.003961663693189621,0.0018162131309509277,0.015568733215332031,0.6675119784774307,0.38492883140072387,0.2973336114407998,0.5637820654412786
1715269887629848800,3.962848876953125,-0.04135014861822128,-0.029508430510759354,-0.031034287065267563,-0.03712617978453636,-0.8489112854003906,-0.5272297859191895,-0.001783706247806549,-0.005550265312194824,0.021248221397399902,0.6676932124304329,0.38484176523448244,0.2971227630973313,0.5637380394015101
1715269887639838700,3.972838623046875,-0.027302298694849014,-0.042941682040691376,-0.03209469094872475,-0.03726804256439209,-0.8487299680709839,-0.5275115966796875,0.0039276182651519775,0.0033321380615234375,0.020538270473480225,0.6678687511802258,0.3848393542876726,0.29688864476201915,0.5636551132984541
1715269887649828600,3.98282861328125,-0.02510412409901619,-0.04826134815812111,-0.033826276659965515,-0.037458281964063644,-0.8486229181289673,-0.52767014503479,0.0030955225229263306,0.02109318971633911,0.02199387550354004,0.6680349416693661,0.3849121082290099,0.2966607318227096,0.5635283271630306
1715269887659818800,3.99281884765625,-0.0503431111574173,-0.05228511616587639,-0.026949796825647354,-0.03770069032907486,-0.8484662175178528,-0.5279048681259155,0.004573889076709747,0.014756619930267334,0.021740317344665527,0.668221811147299,0.3849747146553342,0.2963815642846702,0.5634109541526328
1715269887669809700,4.0028095703125,-0.059178151190280914,-0.049132734537124634,-0.02686990238726139,-0.03791140764951706,-0.8481924533843994,-0.528329610824585,0.008843444287776947,-0.003751397132873535,0.026162803173065186,0.668449111341227,0.3849498108902356,0.2960554636559566,0.5633298416653786
1715269887679799600,4.012799560546875,-0.02684210240840912,-0.05451391637325287,-0.025788990780711174,-0.03805721551179886,-0.8479841351509094,-0.5286535620689392,0.013734735548496246,-0.013435423374176025,0.033276915550231934,0.668659626525467,0.3849449287657434,0.2957881243776953,0.5632239009792592
1715269887689789400,4.02278955078125,0.010869856923818588,-0.07131339609622955,-0.02383662760257721,-0.03825055807828903,-0.8480165004730225,-0.5285875201225281,0.019680645316839218,-0.01947605609893799,0.037193477153778076,0.6688058622836937,0.3851231178963875,0.29561195550503994,0.5630207030083195
1715269887699779600,4.032779541015625,0.04658966511487961,-0.09151880443096161,-0.026317762210965157,-0.03852846100926399,-0.8482989072799683,-0.5281141400337219,0.02191166952252388,-0.011426985263824463,0.03461432456970215,0.668886795934445,0.38550553237582347,0.29551381185438197,0.5627144075876157
1715269887709769700,4.042769775390625,0.06935489177703857,-0.10033972561359406,-0.025595778599381447,-0.03884150832891464,-0.8487814664840698,-0.5273151397705078,0.01630430668592453,0.014308929443359375,0.03560060262680054,0.6689302207952805,0.38604770901109553,0.29548196865365334,0.5623076322996872
1715269887719759600,4.052759521484375,0.07330431044101715,-0.1020209789276123,-0.032771866768598557,-0.039059508591890335,-0.8492662906646729,-0.5265177488327026,0.008572481572628021,0.028679311275482178,0.03736668825149536,0.6690007369058016,0.38657018899631657,0.29547354602123715,0.5618689216087095
1715269887729749800,4.062749755859375,0.034694869071245193,-0.10375815629959106,-0.034037135541439056,-0.03927991911768913,-0.8496041297912598,-0.5259561538696289,0.002780921757221222,0.02195221185684204,0.03527921438217163,0.6691321467985677,0.38700436302950797,0.29538034360005305,0.5614625135820651
1715269887739740700,4.07274072265625,-0.010315323248505592,-0.09801745414733887,-0.035167910158634186,-0.039474546909332275,-0.8497143983840942,-0.5257632732391357,0.001663297414779663,0.008344888687133789,0.03481173515319824,0.6693474618175498,0.38728438357117045,0.2951765068033206,0.5611197543295008
1715269887749730600,4.08273046875,-0.03985510766506195,-0.09155263006687164,-0.03252392262220383,-0.039602652192115784,-0.8496924042701721,-0.5257894396781921,-0.00016172602772712708,0.005560934543609619,0.03993421792984009,0.6696102983406853,0.38745362102505715,0.29493216978096676,0.5608179484905265
1715269887759720400,4.092720458984375,-0.06855615228414536,-0.09384268522262573,-0.03713885322213173,-0.039681825786828995,-0.8495581746101379,-0.5260001420974731,-0.005072176456451416,0.00535053014755249,0.038191795349121094,0.6699212050208914,0.38753626252982537,0.2946448375591838,0.5605404133911005
1715269887769710600,4.102710693359375,-0.10382838547229767,-0.10146358609199524,-0.029894519597291946,-0.03977952525019646,-0.8492640256881714,-0.526467502117157,-0.006118878722190857,-0.0003451704978942871,0.03261679410934448,0.6703028019251204,0.38753026147756153,0.29425590476700475,0.5602925554331443
1715269887779700500,4.112700439453125,-0.12180142104625702,-0.10378825664520264,-0.030523493885993958,-0.03990398347377777,-0.8488059043884277,-0.52719646692276,-0.00655900314450264,-0.002527594566345215,0.035817623138427734,0.6707474876154511,0.3874315965957356,0.2937661222418951,0.5600856545375589
1715269887789690600,4.122690673828125,-0.13104285299777985,-0.10223163664340973,-0.033880408853292465,-0.04007262364029884,-0.8482411503791809,-0.5280919075012207,-0.003811623901128769,-0.001978456974029541,0.03739970922470093,0.6712175519165714,0.3872751304194913,0.2932098655142381,0.5599221402590949
1715269887799680800,4.1326806640625,-0.14272981882095337,-0.08943673968315125,-0.04161682352423668,-0.040218718349933624,-0.8475993275642395,-0.5291101932525635,-0.003818117082118988,-0.006679058074951172,0.027599573135375977,0.6717114228865274,0.3870591863751778,0.2926261872179894,0.5597844442057478
1715269887809671700,4.142671630859375,-0.13544154167175293,-0.0738665759563446,-0.04804915562272072,-0.040285468101501465,-0.846956193447113,-0.5301342010498047,-0.013715352863073349,-0.008481919765472412,0.019254624843597412,0.6721928936502377,0.38680548921334246,0.29208633045107596,0.5596639533107104
1715269887819661600,4.15266162109375,-0.12520824372768402,-0.06754742562770844,-0.059256404638290405,-0.040197066962718964,-0.8464269638061523,-0.5309854745864868,-0.02692631632089615,-0.0009239912033081055,0.009165346622467041,0.6726519030958881,0.38657497633348026,0.29166255709774574,0.5594927801804016
1715269887829651700,4.162651611328125,-0.10708490759134293,-0.06637537479400635,-0.06993407756090164,-0.04001832380890846,-0.8460195064544678,-0.531647801399231,-0.03485652431845665,0.0005301237106323242,-0.0018300414085388184,0.6730847673756081,0.3863968948664825,0.29133064005217435,0.5592678969752403
1715269887839641600,4.1726416015625,-0.1020357608795166,-0.058095868676900864,-0.07906313240528107,-0.03976687788963318,-0.8456705808639526,-0.5322216153144836,-0.035657286643981934,0.0038585662841796875,-0.007420778274536133,0.6735148387761264,0.3862376188454423,0.29104927872861963,0.5590067806481396
1715269887849631500,4.182631591796875,-0.11243673413991928,-0.053101375699043274,-0.07918137311935425,-0.039449818432331085,-0.845303475856781,-0.5328278541564941,-0.03836997225880623,0.007580876350402832,-0.00818777084350586,0.6739564569205252,0.38604484158746727,0.2907841858143265,0.558745423490724
1715269887859621600,4.19262158203125,-0.13506999611854553,-0.050268303602933884,-0.07778115570545197,-0.03914293646812439,-0.8448807597160339,-0.5335206389427185,-0.04209482669830322,-0.0008680820465087891,-0.0071746110916137695,0.6744069842282504,0.38581505855658377,0.29049342486731317,0.5585118003697591
1715269887869612800,4.20261279296875,-0.14471223950386047,-0.04909811168909073,-0.0816616415977478,-0.03880419209599495,-0.8444141745567322,-0.5342833399772644,-0.040846653282642365,-0.015433669090270996,-0.0020783543586730957,0.6748767855715144,0.38554777768121024,0.29019171458838333,0.5582855369069158
1715269887879602700,4.212602783203125,-0.1305430382490158,-0.05120493844151497,-0.08738597482442856,-0.03844747692346573,-0.8439366221427917,-0.5350631475448608,-0.034733641892671585,-0.024837613105773926,-0.0009018182754516602,0.675360367121975,0.3852721767202238,0.2898857875221763,0.558049929595863
1715269887889592600,4.222592529296875,-0.09462578594684601,-0.0639239251613617,-0.08676732331514359,-0.03823167830705643,-0.8435412645339966,-0.5357017517089844,-0.029425762593746185,-0.028025448322296143,-0.0069008469581604,0.6758044788380814,0.38509732332448526,0.2895672157496648,0.5577983734711678
1715269887899582700,4.232582763671875,-0.05559556186199188,-0.08037906885147095,-0.09155668318271637,-0.03823010250926018,-0.843255341053009,-0.5361517667770386,-0.023552704602479935,-0.025656282901763916,-0.009090542793273926,0.6762094444026356,0.385073289496499,0.289210445498463,0.5575091601312666
1715269887909572600,4.242572509765625,-0.02699001505970955,-0.10322526097297668,-0.09331303834915161,-0.038435351103544235,-0.8430837988853455,-0.536406934261322,-0.012742597609758377,-0.016596317291259766,-0.005310654640197754,0.6765890713142518,0.385207874253698,0.28881034550898366,0.557163062658118
1715269887919562500,4.2525625,-0.015525691211223602,-0.11728382110595703,-0.09295178204774857,-0.038794100284576416,-0.8429694771766663,-0.5365606546401978,-0.0005582831799983978,-0.013384103775024414,-0.0020441412925720215,0.6769651245054037,0.3854456797366969,0.2883596954731044,0.5567749721119564
1715269887929553700,4.2625537109375,-0.013633515685796738,-0.12970799207687378,-0.09326976537704468,-0.039242301136255264,-0.8428610563278198,-0.5366984009742737,0.011990129947662354,-0.016925811767578125,-0.0016164779663085938,0.6773573454583378,0.3857302440370788,0.2878593129989742,0.5563597209423335
1715269887939543800,4.272543701171875,-0.014184204861521721,-0.1496063470840454,-0.09243912249803543,-0.03983050584793091,-0.8427819609642029,-0.5367792248725891,0.019307464361190796,-0.02002614736557007,0.00046330690383911133,0.6777509617176531,0.38609244462501124,0.28730298814735306,0.5559164188021719
1715269887949533700,4.28253369140625,-0.0088200643658638,-0.16294212639331818,-0.097113236784935,-0.04037480428814888,-0.8428100943565369,-0.5366944074630737,0.02906806766986847,-0.023583829402923584,0.003689587116241455,0.678152706310429,0.38652950282792997,0.28678866795215857,0.5553881682195283
1715269887959523600,4.292523681640625,-0.0008485317230224609,-0.17896103858947754,-0.10074365884065628,-0.04074311628937721,-0.8428770303726196,-0.5365614891052246,0.0386221744120121,-0.02659916877746582,0.001573026180267334,0.6786140733144941,0.38696214040395244,0.28632071886387384,0.5547644223991389
1715269887969513700,4.302513671875,0.01967964693903923,-0.19351334869861603,-0.10651259869337082,-0.041068997234106064,-0.8429984450340271,-0.536345899105072,0.04769134148955345,-0.02733224630355835,-0.001785874366760254,0.6791059075848164,0.3874389110216847,0.28586386043679735,0.5540649857690088
1715269887979503600,4.312503662109375,0.029691748321056366,-0.20272894203662872,-0.10668743401765823,-0.04134131968021393,-0.8431910276412964,-0.5360221862792969,0.05360941216349602,-0.023355603218078613,-0.0039101243019104,0.6796100905303399,0.38796007314404063,0.2854397925659797,0.5533002972120358
1715269887989493500,4.322493408203125,0.026577182114124298,-0.21361860632896423,-0.10716201364994049,-0.041605979204177856,-0.8433841466903687,-0.5356976985931396,0.05631548538804054,-0.021926403045654297,-0.0055925846099853516,0.680140605305998,0.38849263105103526,0.2849993335612042,0.5525011068361912
1715269887999484400,4.332484375,0.036336544901132584,-0.21786342561244965,-0.10697445273399353,-0.0418243408203125,-0.84361732006073,-0.5353134870529175,0.05865481495857239,-0.02018260955810547,-0.005809009075164795,0.6806755584637841,0.3890429271661692,0.2845854143190548,0.5516679298494175
1715269888009474600,4.342474609375,0.04063382372260094,-0.2214517742395401,-0.10635393857955933,-0.042030032724142075,-0.8438872694969177,-0.5348716974258423,0.06233951076865196,-0.016632020473480225,-0.00776141881942749,0.6812121945138682,0.3896199624625522,0.28418379568289687,0.5508046420971969
1715269888019464700,4.352464599609375,0.06437553465366364,-0.21031442284584045,-0.10431375354528427,-0.04219093546271324,-0.8442310094833374,-0.5343162417411804,0.06221049278974533,-0.009635448455810547,-0.014511942863464355,0.6817176571759321,0.39022539084339597,0.28384154031396475,0.5499264315174882
1715269888029454600,4.36245458984375,0.08278276771306992,-0.2015020251274109,-0.09913257509469986,-0.04225035384297371,-0.8447026610374451,-0.5335655808448792,0.059752218425273895,0.003073751926422119,-0.01968759298324585,0.6821661568867341,0.39086969957792383,0.2836161126877217,0.5490282064080647
1715269888039444700,4.37244482421875,0.0989644005894661,-0.18692654371261597,-0.08823499083518982,-0.04222283512353897,-0.8452865481376648,-0.532642126083374,0.053132906556129456,0.010158002376556396,-0.028438806533813477,0.6825498495956281,0.39154218330718127,0.28350250034619595,0.5481299750435153
1715269888049434600,4.3824345703125,0.10804631561040878,-0.16325743496418,-0.08785708993673325,-0.042004019021987915,-0.8459378480911255,-0.5316244959831238,0.0472378171980381,0.015341103076934814,-0.03725367784500122,0.6828859290920257,0.3921756277976517,0.28352431514277177,0.5472465903334839
1715269888059425500,4.392425537109375,0.09893143177032471,-0.14930033683776855,-0.08643396198749542,-0.04159919172525406,-0.8465573191642761,-0.530669629573822,0.04227060452103615,0.019271552562713623,-0.04748600721359253,0.6832190769871311,0.3927128636565731,0.28362263672336296,0.5463941005755752
1715269888069415700,4.402415771484375,0.09089294821023941,-0.12030863761901855,-0.08545844256877899,-0.041063033044338226,-0.8471277952194214,-0.5298000574111938,0.036622755229473114,0.018682539463043213,-0.05476415157318115,0.6835292587358285,0.39315012568407864,0.2837832677420935,0.545607566154127
1715269888079405600,4.412405517578125,0.06225064769387245,-0.09492632746696472,-0.08636219054460526,-0.040373846888542175,-0.8475875854492188,-0.5291172862052917,0.03457553684711456,0.0159531831741333,-0.05367696285247803,0.6838478870647239,0.39344307561200276,0.2839787027690183,0.5448949849895436
1715269888089395500,4.4223955078125,0.0260886512696743,-0.07934576272964478,-0.08656751364469528,-0.03955912962555885,-0.847847580909729,-0.52876216173172,0.03322675824165344,0.008095502853393555,-0.055710554122924805,0.6842179441717536,0.39354933807318954,0.284144019015207,0.544267211392143
1715269888099385900,4.4323857421875,-0.01132599264383316,-0.05480233579874039,-0.08970259130001068,-0.038642022758722305,-0.8478726148605347,-0.528789758682251,0.03310311213135719,0.007632315158843994,-0.05195975303649902,0.6846414430184028,0.39344872672734754,0.28425906157356134,0.543746951538398
1715269888109375700,4.442375732421875,-0.0456051342189312,-0.034819573163986206,-0.08512408286333084,-0.037656743079423904,-0.8476587533950806,-0.5292037129402161,0.035566315054893494,0.005755186080932617,-0.04950118064880371,0.6851106632756534,0.3931462571973898,0.28431347040439375,0.5433462950877774
1715269888119365600,4.45236572265625,-0.0542132742702961,-0.0021330006420612335,-0.08254621177911758,-0.03661738708615303,-0.8472726345062256,-0.5298944115638733,0.03249754384160042,0.0032175779342651367,-0.05048888921737671,0.6855926411032104,0.3926867728535201,0.28434113547445156,0.5430559393571875
1715269888129356500,4.4623564453125,-0.04521125555038452,0.024920720607042313,-0.07413248717784882,-0.03556960076093674,-0.8468593955039978,-0.5306258797645569,0.027482472360134125,0.010967791080474854,-0.04966592788696289,0.6860080539854414,0.39216773769659996,0.2844143449312527,0.5428680411037047
1715269888139346700,4.4723466796875,-0.009010747075080872,0.038838665932416916,-0.0636315792798996,-0.03450256586074829,-0.8465182185173035,-0.5312404036521912,0.02212771400809288,0.018759548664093018,-0.05182850360870361,0.6863272542860289,0.3916529465597214,0.28458350695297535,0.5427476101350811
1715269888149336600,4.482336669921875,0.019596662372350693,0.053585655987262726,-0.04921855032444,-0.03348502144217491,-0.8463121652603149,-0.531633734703064,0.020362488925457,0.024794340133666992,-0.053296804428100586,0.6865393832177559,0.3912147482645684,0.284840594120793,0.5426605120856111
1715269888159326500,4.492326416015625,0.042932506650686264,0.06702210009098053,-0.037088051438331604,-0.03251861780881882,-0.8462263941764832,-0.5318302512168884,0.018251676112413406,0.03503870964050293,-0.05206263065338135,0.6866437677913114,0.39084051587674923,0.28518164074843605,0.5426190372887804
1715269888169316600,4.502316650390625,0.040951114147901535,0.07587897777557373,-0.022786077111959457,-0.03156847134232521,-0.8461822867393494,-0.5319576859474182,0.0132579505443573,0.041525423526763916,-0.04610633850097656,0.6866884380147809,0.39047638594597117,0.2855684573390426,0.5426212726340266
1715269888179306800,4.512306640625,0.01501123234629631,0.08515316247940063,-0.005964952986687422,-0.030667953193187714,-0.8460469245910645,-0.5322254300117493,0.009626111015677452,0.03147190809249878,-0.04011648893356323,0.6867118869293091,0.39004350068367394,0.28592543327550285,0.5427147734897587
1715269888189297700,4.522297607421875,-0.004766201134771109,0.09213598072528839,0.0051721204072237015,-0.029788872227072716,-0.8457837104797363,-0.53269362449646,0.009448934346437454,0.021381914615631104,-0.030477821826934814,0.6867419392743895,0.3895151314539322,0.2862361825935417,0.5428924586796325
1715269888199287600,4.53228759765625,-0.011947466991841793,0.09610648453235626,0.019088270142674446,-0.02901490032672882,-0.8454365134239197,-0.5332870483398438,0.00846133753657341,0.012901842594146729,-0.020301878452301025,0.6867555065024821,0.38894719411044804,0.2864900496107218,0.5431484584952723
1715269888209277700,4.542277587890625,-0.01568707823753357,0.09507504105567932,0.02741570770740509,-0.028389273211359978,-0.8450348377227783,-0.5339570641517639,0.006172500550746918,0.008410751819610596,-0.01447439193725586,0.6867427704283846,0.38837489629682137,0.28668172830596195,0.5434729241815283
1715269888219268600,4.5522685546875,0.002863488858565688,0.09170055389404297,0.034230537712574005,-0.027915459126234055,-0.8446254730224609,-0.5346292853355408,0.004188068211078644,0.016744673252105713,-0.008873581886291504,0.6866992772222134,0.38783648130129006,0.28682437286197143,0.54383697697008
1715269888229258500,4.562258544921875,0.017084768041968346,0.08592627942562103,0.04552287235856056,-0.027553191408514977,-0.8442825675010681,-0.5351893305778503,0.0018726792186498642,0.023146212100982666,-0.0003331303596496582,0.6866143203791882,0.3873731575034363,0.28696232796530785,0.5442014644840653
1715269888239248600,4.57224853515625,0.019556714221835136,0.0813475102186203,0.053069207817316055,-0.027338532730937004,-0.8439396023750305,-0.5357410907745361,0.0017800889909267426,0.02045339345932007,0.0033771395683288574,0.6865029666345839,0.3869503254409616,0.28705208564754603,0.5445954200677401
1715269888249239600,4.582239501953125,0.027001315727829933,0.07351195812225342,0.05387987196445465,-0.027268551290035248,-0.8436511754989624,-0.5361987352371216,0.002259422093629837,0.017219960689544678,0.014424443244934082,0.6863543114641982,0.38660675830353936,0.28711642134734366,0.5449927210900833
1715269888259229400,4.5922294921875,0.02601940929889679,0.06495974957942963,0.06170690432190895,-0.027331503108143806,-0.8435304760932922,-0.5363852977752686,0.002352895215153694,0.017999589443206787,0.021141767501831055,0.6861419373561601,0.3864179692352976,0.2872081317372242,0.5453454866730428
1715269888269219300,4.60221923828125,0.01464318297803402,0.052494823932647705,0.06470774859189987,-0.027509648352861404,-0.8434679508209229,-0.5364745855331421,0.002790438011288643,0.012062430381774902,0.02322995662689209,0.6859077056542899,0.38630816949897356,0.2872780751230789,0.5456811079717279
1715269888279209500,4.61220947265625,-0.004123047459870577,0.04999997466802597,0.06322996318340302,-0.027717920020222664,-0.8434046506881714,-0.5365633964538574,0.003075001761317253,0.0059108734130859375,0.02928483486175537,0.6856781020424376,0.38621147493838326,0.28733084259654673,0.5460102571319407
1715269888289199400,4.622199462890625,-0.010800391435623169,0.03771428018808365,0.059142813086509705,-0.02796042710542679,-0.8432899117469788,-0.5367312431335449,0.0011507607996463776,0.005567193031311035,0.03187894821166992,0.6854856894547335,0.3861043861043494,0.28732868252253174,0.5463287154382647
1715269888299189500,4.632189453125,-0.009865090250968933,0.03208488970994949,0.05247319117188454,-0.02821126952767372,-0.8431648015975952,-0.5369144678115845,0.0012947898358106613,0.005396366119384766,0.0328708291053772,0.6853271542554706,0.3860100470068396,0.28729605311288525,0.5466112156685676
1715269888309179600,4.6421796875,0.003003891324624419,0.031238272786140442,0.040162261575460434,-0.02840426191687584,-0.8430867791175842,-0.5370268225669861,0.0006485506892204285,0.005043685436248779,0.03304421901702881,0.6851789615424452,0.3859387554990898,0.28729406212088593,0.5468483669089688
1715269888319170600,4.652170654296875,0.014146344736218452,0.027523960918188095,0.03590792790055275,-0.028543351218104362,-0.8430837988853455,-0.537024199962616,-0.0007840152829885483,0.0011343955993652344,0.03421652317047119,0.6850361106232075,0.38591246881739005,0.2873316334794132,0.547026171450224
1715269888329160400,4.662160400390625,0.015609217807650566,0.020724911242723465,0.025360213592648506,-0.028668859973549843,-0.8431764841079712,-0.5368717908859253,-0.0019860193133354187,-0.0004360079765319824,0.03946572542190552,0.6848804624142677,0.3859537783967449,0.28740876337702925,0.5471512105530919
1715269888339150300,4.672150390625,0.0074291592463850975,0.02202666364610195,0.017920872196555138,-0.028731923550367355,-0.8432745933532715,-0.5367143154144287,-0.004120219498872757,-0.00039899349212646484,0.039064109325408936,0.6847573524806674,0.38599344302720595,0.2874924228717181,0.5472334215426028
1715269888349140500,4.682140380859375,-0.012677973136305809,0.016638822853565216,0.01655573584139347,-0.028757115826010704,-0.8433119058609009,-0.5366544127464294,-0.005056334659457207,-0.0038712024688720703,0.03184783458709717,0.6846725244653722,0.38598897895940665,0.28755049639814295,0.5473122129057881
1715269888359130400,4.69213037109375,-0.03557870537042618,0.027217430993914604,0.01086682453751564,-0.028736183419823647,-0.8432655334472656,-0.5367284417152405,-0.006420038640499115,-0.010860323905944824,0.028595447540283203,0.6846221011087199,0.3859163995687242,0.2875835740009115,0.5474091349296474
1715269888369120300,4.702120361328125,-0.04836161434650421,0.028058191761374474,0.002531929174438119,-0.028648052364587784,-0.8431293368339539,-0.5369469523429871,-0.008217152208089828,-0.015070557594299316,0.02650994062423706,0.6846125561614497,0.385766380138643,0.2875948825628763,0.5475207400693588
1715269888379111400,4.712111328125,-0.06321395933628082,0.029213204979896545,-0.003784556407481432,-0.0284965168684721,-0.8429334163665771,-0.5372625589370728,-0.010626990348100662,-0.0167618989944458,0.02200382947921753,0.684643708635452,0.3855649575175095,0.2875906290352437,0.5476259430607373
1715269888389101600,4.7221015625,-0.07511109858751297,0.03291686251759529,-0.00571055430918932,-0.028302635997533798,-0.8426713347434998,-0.53768390417099,-0.013185983523726463,-0.01934337615966797,0.017450690269470215,0.6847023948804284,0.3853078702733574,0.2875689249198906,0.5477449752402721
1715269888399091500,4.732091552734375,-0.08431056141853333,0.03644341975450516,-0.010033464059233665,-0.028043018653988838,-0.8423961997032166,-0.5381284952163696,-0.012865766882896423,-0.017894208431243896,0.017101764678955078,0.6847690700336528,0.38502026113557286,0.28756767105179615,0.5478645607877387
1715269888409081300,4.742081298828125,0.12718011438846588,0.04950276389718056,0.059108588844537735,-0.02788924239575863,-0.842422366142273,-0.5380953550338745,-0.013858778402209282,-0.0225982666015625,0.012079060077667236,0.6846900714954918,0.3849437279595914,0.287698868125729,0.5479480871448692
1715269888419071500,4.752071533203125,0.17309273779392242,0.1780274510383606,0.24644538760185242,-0.0286332368850708,-0.8441788554191589,-0.5352962017059326,-0.00748429074883461,-0.024259746074676514,0.003390014171600342,0.6832469520217396,0.38591074759558797,0.2888335151395505,0.5484719934741668
1715269888429061400,4.762061279296875,0.00763480830937624,-0.09030653536319733,0.04226669296622276,-0.030108684673905373,-0.8445981740951538,-0.5345532298088074,-0.04958794265985489,-0.009130895137786865,0.04853028059005737,0.6827546179649023,0.38654605662407704,0.28862696570374524,0.5487463460029939
1715269888439052500,4.772052490234375,0.02638617902994156,-0.12515825033187866,-0.02610703930258751,-0.030778389424085617,-0.8448171615600586,-0.5341688990592957,-0.1206955760717392,-0.02722245454788208,0.051365554332733154,0.6827656620264516,0.3869821718849039,0.2883753390559608,0.5485575042719403
1715269888449042400,4.78204248046875,-0.06312107294797897,-0.22611230611801147,-0.12641926109790802,-0.031039169058203697,-0.8447533249855042,-0.5342549681663513,0.12790198624134064,-0.0561407208442688,0.06643569469451904,0.6832566201371262,0.3872839734074782,0.28789520142796454,0.5479852024937345
1715269888459032600,4.792032470703125,0.006366930902004242,-0.2344043105840683,-0.17157208919525146,-0.031063620001077652,-0.8446219563484192,-0.5344611406326294,0.08765849471092224,-0.02451854944229126,0.023001670837402344,0.6840948925360316,0.38762433900639026,0.2872573993293693,0.5470325465669027
1715269888469022500,4.8020224609375,-0.0008244030177593231,-0.12390230596065521,-0.1189299151301384,-0.03078605607151985,-0.8447561860084534,-0.5342650413513184,0.02109675295650959,0.03585737943649292,0.001656949520111084,0.6847170308895487,0.3879598322968448,0.2869749818785172,0.5461639786934435
1715269888479012600,4.8120126953125,-0.061119645833969116,0.03192643076181412,-0.058855000883340836,-0.030318710952997208,-0.8446220755577087,-0.5345038175582886,-0.0324101448059082,0.02929931879043579,-0.011684656143188477,0.6850769266724912,0.3878646070484917,0.2868957150469379,0.5458218823734623
1715269888489002500,4.82200244140625,-0.0875704288482666,0.11305910348892212,-0.029548242688179016,-0.02955080382525921,-0.8442434072494507,-0.535144567489624,-0.07942743599414825,-0.0021920204162597656,-0.021465599536895752,0.6852133767757543,0.3873381392554993,0.28704856279053853,0.545943958238648
1715269888498993400,4.831993408203125,-0.10664500296115875,0.07281340658664703,-0.049054499715566635,-0.028723957017064095,-0.8437420725822449,-0.5359795689582825,-0.08625099062919617,-0.011482417583465576,-0.009003400802612305,0.6853588429454087,0.38669370959792415,0.2871901832792334,0.5461436406465039
1715269888508983300,4.8419833984375,-0.15236961841583252,0.02670344151556492,-0.09788302332162857,-0.027908753603696823,-0.8431292176246643,-0.5369861721992493,-0.05976822227239609,-0.009089291095733643,-0.010117769241333008,0.6857059153648206,0.386068305970039,0.28715531479345846,0.5461688299765948
1715269888518973400,4.851973388671875,-0.2412416934967041,-0.030795805156230927,-0.17662470042705536,-0.026973342522978783,-0.8421686291694641,-0.5385390520095825,0.008342389017343521,-0.005487501621246338,-0.004963815212249756,0.6864120662305607,0.38530193776653887,0.2868325276670941,0.5459925280984497
1715269888528963600,4.861963623046875,-0.3434615433216095,-0.0034118504263460636,-0.2743057310581207,-0.02504281885921955,-0.8406915664672852,-0.5409348011016846,0.03294689580798149,-0.010290980339050293,-0.0050095319747924805,0.687643206937565,0.3840252074740395,0.2864563688145054,0.5455401920888273
1715269888538953500,4.871953369140625,-0.32346901297569275,0.3808670938014984,-0.0009136020671576262,-0.02217605896294117,-0.8389079570770264,-0.5438212752342224,0.02892046980559826,-0.027455449104309082,-0.009645581245422363,0.6883146095936882,0.3818713867558051,0.2868163310309774,0.5460160357351467
