time,seconds_elapsed,rotationRateX,rotationRateY,rotationRateZ,gravityX,gravityY,gravityZ,accelerationX,accelerationY,accelerationZ,quaternionW,quaternionX,quaternionY,quaternionZ
1715269995311937300,0.056937255859375,0.026914123445749283,-0.000898891594260931,-0.014048844575881958,-0.18327103555202484,-0.5195875763893127,-0.8345301151275635,0.00037917494773864746,0.008204460144042969,-0.008609533309936523,0.9577395378312523,0.27125724110017335,-0.09567895653653456,0
1715269995321926700,0.0669267578125,0.029950127005577087,0.0006473396206274629,-0.009213343262672424,-0.18324308097362518,-0.5196912288665771,-0.8344717025756836,-0.002792075276374817,0.009788274765014648,-0.01246732473373413,0.957724304553582,0.271315667420008,-0.09566588334019047,5.551115123125783e-17
1715269995331916500,0.07691650390625,0.03373724967241287,0.008436020463705063,-0.011693479493260384,-0.1831340342760086,-0.5198249220848083,-0.8344123363494873,-0.002824842929840088,0.01466745138168335,-0.01663130521774292,0.9577088561882302,0.2713878494567727,-0.095616208848285,-0.000020168878582860206
1715269995341906400,0.086906494140625,0.031220296397805214,0.014621212147176266,-0.008729913271963596,-0.18296898901462555,-0.5199661254882812,-0.8343605995178223,-0.0013724565505981445,0.016929566860198975,-0.016820430755615234,0.9576953364767335,0.2714635590312807,-0.09553660176832017,-0.00003854763488009283
1715269995351897600,0.096897705078125,0.021292511373758316,0.008183819241821766,-0.00503590889275074,-0.1828356236219406,-0.5200628042221069,-0.8343295454978943,-0.00036141276359558105,0.010846495628356934,-0.018072128295898438,0.9576872473704315,0.27151654583122176,-0.09546717934957488,-0.00003641155534733764
1715269995361887500,0.106887451171875,0.009059546515345573,0.0021424381993710995,-0.0003604634548537433,-0.18276913464069366,-0.5200930237770081,-0.8343253135681152,-0.00016851723194122314,0.010174751281738281,-0.01587909460067749,0.9576861309416687,0.2715326372463744,-0.09543253085066715,-0.000036260577728597365
1715269995371877400,0.11687744140625,-0.01113983802497387,0.00435685645788908,0.0030657600145787,-0.18275342881679535,-0.5199626684188843,-0.8344100117683411,0.0026844441890716553,0.012607872486114502,-0.011384665966033936,0.9577082468219347,0.2714591160483107,-0.0954198808022803,-0.000028345899198867208
1715269995381867500,0.126867431640625,-0.027410421520471573,0.0011639929143711925,0.009795834310352802,-0.18276216089725494,-0.5196614861488342,-0.8345956802368164,0.007179275155067444,0.009651720523834229,-0.008315026760101318,0.9577566337155952,0.27129111564169306,-0.09541124075736701,0.0000012255982886899552
1715269995391858700,0.136858642578125,-0.024708271026611328,-0.0010344465263187885,0.01282531302422285,-0.18283258378505707,-0.5192551612854004,-0.8348330855369568,0.007280200719833374,0.006376743316650391,-0.009298324584960938,0.9578186325784784,0.27106696251769463,-0.09542616016278245,0.00005657634240380238
1715269995401848600,0.1468486328125,-0.0028788717463612556,-0.0013108826242387295,0.015089798718690872,-0.18295295536518097,-0.5189458131790161,-0.8349990844726562,0.006652906537055969,0.011758923530578613,-0.011054933071136475,0.957861972613568,0.27089990761433635,-0.09546568348173964,0.00012377582229228246
1715269995411838500,0.15683837890625,0.01775897480547428,0.0023512300103902817,0.018260957673192024,-0.1830577850341797,-0.5187293291091919,-0.835110604763031,0.004438385367393494,0.019583821296691895,-0.012362480163574219,0.9578910765552724,0.27078908454258316,-0.09548805708309863,0.00022798118474676166
1715269995421829400,0.166829345703125,0.03219357505440712,0.006459422409534454,0.020733969286084175,-0.18311834335327148,-0.5186388492584229,-0.8351535201072693,0.0031714141368865967,0.021690547466278076,-0.013235092163085938,0.9579022689430001,0.2707515580073986,-0.09548205867959304,0.0003571324570599832
1715269995431819500,0.176819580078125,0.04174867644906044,0.005824524909257889,0.014347509481012821,-0.18310546875,-0.5187105536460876,-0.8351118564605713,0.00035093724727630615,0.02000749111175537,-0.009645223617553711,0.9578913279411615,0.27080323072978757,-0.09544466732559548,0.00046939758036407264
1715269995441809400,0.186809326171875,0.06584948301315308,0.015833482146263123,0.01433472614735365,-0.18305572867393494,-0.5189560651779175,-0.8349701762199402,-0.0007058829069137573,0.020619213581085205,-0.006201028823852539,0.9578542015551224,0.2709529064564761,-0.09539100091734529,0.0005801408940382946
1715269995451799300,0.19679931640625,0.06938962638378143,0.01913633570075035,0.013482781127095222,-0.18292668461799622,-0.5193353891372681,-0.8347625732421875,-0.00008727610111236572,0.014833986759185791,-0.003936707973480225,0.9577999810928002,0.2711788829679878,-0.09529278864926986,0.0007076797089510811
1715269995461790500,0.20679052734375,0.058809682726860046,0.023196591064333916,0.006043240427970886,-0.18266624212265015,-0.5197107791900635,-0.8345860242843628,-0.0010038167238235474,0.006130337715148926,-0.005578160285949707,0.9577538509458631,0.2713971948513522,-0.09513442868867297,0.0008023532483534823
1715269995471780600,0.216780517578125,0.05681609734892845,0.028134090825915337,0.007285472005605698,-0.18236136436462402,-0.5200594663619995,-0.8344354629516602,-0.0033228546380996704,0.011590838432312012,-0.004569053649902344,0.957714504083881,0.27159890538160647,-0.09495425309346282,0.0008896113959961371
1715269995481770500,0.2267705078125,0.0353132002055645,0.03849538415670395,0.007251650094985962,-0.18204614520072937,-0.5202421545982361,-0.8343903422355652,-0.0034549683332443237,0.007485747337341309,-0.001837015151977539,0.9577024933034646,0.2717081863173766,-0.09476012502643714,0.0009976249657753788
1715269995491761400,0.236761474609375,0.02056887559592724,0.040403272956609726,0.0010188542073592544,-0.18168579041957855,-0.5201718807220459,-0.8345127105712891,-0.0010687261819839478,-0.0075533390045166016,-0.002874314785003662,0.9577343305786878,0.271671517971599,-0.09454221741223477,0.001091651533073279
1715269995501751300,0.246751220703125,0.023437900468707085,0.03277385234832764,0.005764340981841087,-0.18138322234153748,-0.5200481414794922,-0.8346556425094604,-0.0016917437314987183,-0.0056171417236328125,-0.0032349228858947754,0.9577716510285406,0.27160447365543094,-0.0943566757355665,0.0011762141559638062
1715269995511741400,0.256741455078125,0.019513946026563644,0.030429469421505928,0.0015960943419486284,-0.18118251860141754,-0.5199621915817261,-0.8347527980804443,-0.00006139278411865234,-0.005886197090148926,-0.0011693835258483887,0.9577968479282056,0.27156179559341365,-0.09422203544476614,0.0012729652987319984
1715269995521731300,0.2667314453125,0.014653942547738552,0.023027746006846428,-0.004025039728730917,-0.18100331723690033,-0.5198379755020142,-0.8348690271377563,0.002917960286140442,-0.008604466915130615,0.003936469554901123,0.9578271402120813,0.27149323572911765,-0.09411111258231342,0.001324081811618305
1715269995531722500,0.276722412109375,0.01524612307548523,0.011298919096589088,-0.006085261236876249,-0.18086786568164825,-0.5198076963424683,-0.8349171876907349,0.0009514838457107544,0.0016803145408630371,0.008211314678192139,0.9578395808066973,0.27147557064227384,-0.09403414536931894,0.0013419461949442102
1715269995541712600,0.286712646484375,0.009863873943686485,0.002082250779494643,-0.007231485564261675,-0.1808135211467743,-0.5198282599449158,-0.8349162340164185,0.0005766898393630981,0.003379225730895996,0.014344334602355957,0.9578394569489956,0.27148594916699725,-0.09400676536117068,0.0013384418270178666
1715269995551702500,0.29670263671875,-0.007445287425071001,-0.00671576801687479,-0.0044157919473946095,-0.18087367713451385,-0.5197113156318665,-0.8349760174751282,0.003063008189201355,0.00008845329284667969,0.017928898334503174,0.9578550794069803,0.27141894361020336,-0.09404127216928375,0.0013224181336569107
1715269995561692400,0.3066923828125,-0.014278693124651909,-0.010640202090144157,-0.0017097539966925979,-0.18098868429660797,-0.5195281505584717,-0.8350650072097778,0.003956198692321777,0.0019041895866394043,0.022015750408172607,0.9578782273374173,0.271315406727383,-0.09410335742455248,0.0013076440845365966
1715269995571683300,0.316683349609375,-0.02281167358160019,-0.016523391008377075,-0.0013838496524840593,-0.18111306428909302,-0.5194242596626282,-0.8351026773452759,0.005713269114494324,0.003173649311065674,0.022953689098358154,0.9578880818852272,0.2712557693080947,-0.09417522855465758,0.0012799770348998485
1715269995581673500,0.326673583984375,-0.02263430692255497,-0.031014982610940933,-0.002039786195382476,-0.18131598830223083,-0.5192749500274658,-0.8351514935493469,0.007274210453033447,0.002200305461883545,0.0192641019821167,0.957900967049276,0.2711689359268739,-0.09429558635440839,0.0012249277136801018
1715269995591663600,0.33666357421875,-0.031953293830156326,-0.038911785930395126,0.0016634725034236908,-0.18160851299762726,-0.5190931558609009,-0.8352009654045105,0.0051253437995910645,0.0065656304359436035,0.019420385360717773,0.957913946763565,0.27106404514453947,-0.09446588064960161,0.0011586705802075214
1715269995601654500,0.346654541015625,-0.04284482076764107,-0.04542428255081177,0.002083186525851488,-0.18192221224308014,-0.5188950300216675,-0.8352558612823486,0.0033333301544189453,0.010624706745147705,0.021748781204223633,0.957928422359039,0.27094972905442466,-0.09464841719219112,0.001087638316301598
1715269995611644400,0.35664453125,-0.04320429638028145,-0.05263612046837807,0.005519929341971874,-0.18232819437980652,-0.5185781717300415,-0.835364043712616,0.0029916316270828247,0.014900743961334229,0.025641202926635742,0.957956637866723,0.270768910196213,-0.0948797824623313,0.0010096341651496532
1715269995621634600,0.366634521484375,-0.051074471324682236,-0.056716084480285645,0.006947649642825127,-0.1828336864709854,-0.5182314515113831,-0.8354687094688416,0.0023679733276367188,0.015057563781738281,0.025776386260986328,0.9579840581584956,0.27057353998348266,-0.09516088094301281,0.0009396214825194704
1715269995631624400,0.37662451171875,-0.052965473383665085,-0.05631847307085991,0.01057673990726471,-0.18333452939987183,-0.5178755521774292,-0.8355796933174133,0.0015260279178619385,0.011497318744659424,0.023522257804870605,0.9580131246201837,0.2703747648088976,-0.09543398746420782,0.0008885765197997331
1715269995641615400,0.386615478515625,-0.04852811619639397,-0.06735807657241821,0.016944358125329018,-0.18389636278152466,-0.517490565776825,-0.8356947302818298,-0.0010554343461990356,0.014865994453430176,0.02331686019897461,0.9580432056230679,0.2701616361458968,-0.09573571809474461,0.000848481187163852
1715269995651605200,0.396605224609375,-0.023961786180734634,-0.07310597598552704,0.026187123730778694,-0.18455162644386292,-0.517218291759491,-0.8357188105583191,-0.0008274167776107788,0.02242147922515869,0.023127317428588867,0.9580494359037359,0.2700156255155292,-0.09608409718704862,0.0008240282171226299
1715269995661597700,0.40659765625,-0.013672664761543274,-0.07592625916004181,0.021062936633825302,-0.1852392554283142,-0.5170746445655823,-0.8356555700302124,0.004132673144340515,0.025787353515625,0.024498403072357178,0.9580329815009129,0.2699451234447928,-0.09644604942503816,0.000819180891080018
1715269995671588600,0.416588623046875,-0.008156191557645798,-0.08454585075378418,0.021819807589054108,-0.1860007792711258,-0.5169749855995178,-0.8355481028556824,0.003932878375053406,0.029273509979248047,0.02043890953063965,0.9580049706002269,0.2698996378503606,-0.09685109750002964,0.0008023655982429823
1715269995681578800,0.426578857421875,-0.04082545265555382,-0.08993582427501678,0.029689447954297066,-0.18684425950050354,-0.516782820224762,-0.8354787230491638,-0.00039637088775634766,0.029874801635742188,0.016600608825683594,0.9579867867747733,0.2698042453381798,-0.09729491296868083,0.0007964601634455337
1715269995691569000,0.43656884765625,-0.09015891700983047,-0.08649902045726776,0.037517011165618896,-0.18775831162929535,-0.5161898136138916,-0.8356404304504395,-0.0017406195402145386,0.014785945415496826,0.015343189239501953,0.9580289514733256,0.2694842879619692,-0.09776511097569565,0.0008065403330091425
1715269995701558800,0.446558837890625,-0.1292562484741211,-0.08213995397090912,0.031050855293869972,-0.18862321972846985,-0.5152053833007812,-0.8360530138015747,0.001687765121459961,0.0029525160789489746,0.013634860515594482,0.958136620987874,0.2689397601572447,-0.09820838950016472,0.0007977875396387168
1715269995711549700,0.4565498046875,-0.15610085427761078,-0.08360947668552399,0.038635339587926865,-0.18948596715927124,-0.5139601230621338,-0.8366242051124573,0.0018943846225738525,-0.00027638673782348633,0.01147472858428955,0.9582857539528697,0.26824700170816523,-0.0986480264777346,0.0007828165946544008
1715269995721539800,0.466539794921875,-0.18724572658538818,-0.0886753499507904,0.04133152216672897,-0.19041754305362701,-0.512477457523346,-0.837321937084198,-0.0041167885065078735,0.00014829635620117188,0.009090185165405273,0.9584676905407539,0.2674213259578968,-0.09912048014353127,0.0007665615452248087
1715269995731529700,0.47652978515625,-0.23052139580249786,-0.09153026342391968,0.03969660773873329,-0.19138741493225098,-0.510646641254425,-0.8382188677787781,-0.005176350474357605,-0.0028269290924072266,0.0065081119537353516,0.9587016574239259,0.2663988415629185,-0.09961033782953202,0.0007399019852334932
1715269995741520600,0.486520751953125,-0.2938809394836426,-0.11144350469112396,0.052652884274721146,-0.1924303025007248,-0.5083804726600647,-0.8393567800521851,-0.0017073005437850952,-0.006924152374267578,0.009812772274017334,0.9589983762798425,0.2651310963712572,-0.10013541427568844,0.0006994611751043878
1715269995751510500,0.496510498046875,-0.4346124529838562,-0.13115143775939941,0.06521827727556229,-0.19370025396347046,-0.5052393078804016,-0.840959906578064,0.0016073286533355713,-0.017130136489868164,0.014726996421813965,0.95941632125774,0.26337280800127516,-0.10077112979659629,0.000640375348405331
1715269995761501000,0.5065009765625,-0.6112926602363586,-0.15903499722480774,0.08273974806070328,-0.19527563452720642,-0.5006571412086487,-0.8433325886726379,0.003686249256134033,-0.030592918395996094,0.010813117027282715,0.9600343550492954,0.26080589126735143,-0.1015578348675389,0.0005322261936703265
1715269995771491800,0.516491943359375,-0.698082685470581,-0.12539847195148468,0.10972409695386887,-0.19700804352760315,-0.49495479464530945,-0.8462904691696167,0.010118365287780762,-0.04447394609451294,0.014076173305511475,0.9608043501924082,0.2576234450645001,-0.10239590377806987,0.00047197805323306863
1715269995781481700,0.526481689453125,-0.6751507520675659,-0.07745306193828583,0.04079696163535118,-0.19813436269760132,-0.48919644951820374,-0.8493701219558716,0.013762414455413818,-0.08213838934898376,-0.0003765225410461426,0.9616053570039523,0.25440289278288153,-0.10292770226862653,0.0003590853875055644
1715269995791471600,0.5364716796875,-0.5770925283432007,-0.06864997744560242,-0.03302133455872536,-0.19869902729988098,-0.4841141700744629,-0.8521456122398376,0.008223533630371094,-0.08186489343643188,-0.03867769241333008,0.9623267035305516,0.25152304133714043,-0.10326351485516821,-0.00009432073940091046
1715269995801461800,0.546461669921875,-0.4770961403846741,0.004424234852194786,-0.03870878368616104,-0.19880609214305878,-0.47981932759284973,-0.8545463681221008,-0.009110182523727417,-0.06676581501960754,-0.0638953447341919,0.9629499991305921,0.2490763018708519,-0.10338185360818987,-0.0005962356191062113
1715269995811452700,0.55645263671875,-0.5255223512649536,0.10658842325210571,-0.08858859539031982,-0.19802789390087128,-0.4756772518157959,-0.8570391535758972,-0.012711256742477417,-0.11483791470527649,-0.10850644111633301,0.9635965533468144,0.2467094686058086,-0.10302849837964495,-0.001069908025979227
1715269995821442800,0.56644287109375,-0.5076773166656494,0.19455263018608093,-0.14731796085834503,-0.1961929351091385,-0.4714514911174774,-0.8597917556762695,-0.018910229206085205,-0.15620356798171997,-0.16025829315185547,0.9643095668470831,0.2442680482481664,-0.10216287521206527,-0.0017201176709123467
1715269995831432700,0.5764326171875,-0.45792004466056824,0.30491775274276733,-0.21099519729614258,-0.19320665299892426,-0.46767058968544006,-0.8625285029411316,-0.022537395358085632,-0.1720389425754547,-0.20236706733703613,0.9650169960769898,0.24204737033794071,-0.10074137774729906,-0.0025359270693853797
1715269995841424000,0.586423828125,-0.45174044370651245,0.4062376916408539,-0.28909265995025635,-0.18900862336158752,-0.4642951190471649,-0.865277886390686,-0.011888623237609863,-0.21266108751296997,-0.29850995540618896,0.9657258832930706,0.24002473208082775,-0.09873800721311748,-0.003539367532838622
1715269995851413800,0.596413818359375,-0.43569862842559814,0.5608329176902771,-0.34893104434013367,-0.1833830177783966,-0.4610653221607208,-0.86821049451828,-0.010815605521202087,-0.21792033314704895,-0.3951561450958252,0.9664796053008025,0.23805782024947025,-0.09603766694624948,-0.004733880124244583
1715269995861403600,0.606403564453125,-0.4472527503967285,0.7652587294578552,-0.3876584470272064,-0.1759532392024994,-0.4579382538795471,-0.8713971376419067,-0.027385398745536804,-0.22513675689697266,-0.4856889843940735,0.9672969406193708,0.23614333068575402,-0.09239992753266314,-0.005935157482169939
1715269995871393800,0.616393798828125,-0.48477718234062195,0.9440862536430359,-0.4423246383666992,-0.1665823608636856,-0.45458683371543884,-0.8749863505363464,-0.04531647264957428,-0.26669618487358093,-0.5832655429840088,0.968215929541978,0.23410692806354153,-0.08775400441970463,-0.007149075761622159
1715269995881385000,0.626385009765625,-0.47752830386161804,1.108688473701477,-0.4646104872226715,-0.1555504947900772,-0.4510425627231598,-0.878842830657959,-0.06533575057983398,-0.2587811052799225,-0.665194034576416,0.9692012916254946,0.2319758678225292,-0.08225445170809564,-0.008388265869461342
1715269995891374800,0.636374755859375,-0.3911179006099701,1.343085765838623,-0.4446132779121399,-0.14278104901313782,-0.4478733241558075,-0.8826228380203247,-0.08188937604427338,-0.2296474575996399,-0.698324978351593,0.9701668923853654,0.23009161810485712,-0.07580525744406655,-0.009358141214392213
1715269997519791900,2.2647919921875,0.5582448244094849,1.029878854751587,4.684278964996338,-0.13548588752746582,-0.6520484089851379,-0.745973527431488,-0.4384124279022217,0.22271180152893066,-0.2851543426513672,0.890016476460538,0.3103184112048792,-0.1752589978677374,-0.2843545589688482
1715269997529781800,2.27478173828125,0.5306926369667053,1.122298002243042,4.611265182495117,-0.15770463645458221,-0.6493211388587952,-0.7439833879470825,-0.4415079951286316,0.08888101577758789,-0.2927444577217102,0.896456409109105,0.31012667442899977,-0.17840892843145062,-0.26145287684895857
1715269997539772000,2.28477197265625,0.43437862396240234,1.2010018825531006,4.5296478271484375,-0.17863407731056213,-0.6452346444129944,-0.7428069114685059,-0.41473445296287537,-0.08651590347290039,-0.27162784337997437,0.902462529462372,0.3096527436617003,-0.1808638191497583,-0.23867310268096847
1715269997549763000,2.29476318359375,0.3191528618335724,1.2299467325210571,4.429239273071289,-0.19834868609905243,-0.6395551562309265,-0.7427159547805786,-0.3715670704841614,-0.21257197856903076,-0.2352350354194641,0.9080840370139063,0.30864888234999843,-0.1826961510246105,-0.2161974938358749
1715269997559753000,2.3047529296875,0.2977314591407776,1.2676105499267578,4.335882186889648,-0.2169293463230133,-0.6326970458030701,-0.7433949708938599,-0.3401079773902893,-0.25743967294692993,-0.20170384645462036,0.9132556348081551,0.30728302467626756,-0.1840643029150088,-0.1940656740723296
1715269997569742800,2.314742919921875,0.3522390127182007,1.335463047027588,4.241682052612305,-0.23425142467021942,-0.6254299283027649,-0.744287371635437,-0.3311324715614319,-0.24299359321594238,-0.186926007270813,0.9178811059360983,0.30599451528374,-0.18499643913823274,-0.17215675799946556
1715269997579733800,2.324733642578125,0.4242599606513977,1.4107698202133179,4.089953899383545,-0.24992778897285461,-0.6182239651679993,-0.7452081441879272,-0.3405263423919678,-0.215073823928833,-0.19377189874649048,0.9219216988503749,0.3050227478635926,-0.1853565249994754,-0.15054716553145847
1715269997589724000,2.334723876953125,0.5482106804847717,1.4738645553588867,3.9092018604278564,-0.26375213265419006,-0.6115396618843079,-0.7459585070610046,-0.3536490201950073,-0.19159150123596191,-0.20345854759216309,0.9253236917692925,0.3045498568625373,-0.18512197234255856,-0.12944246612917976
1715269997599713800,2.3447138671875,0.6134799718856812,1.5126367807388306,3.753814458847046,-0.2759198546409607,-0.6056014895439148,-0.7464014887809753,-0.3485613465309143,-0.19044959545135498,-0.18406420946121216,0.9280850218811205,0.3046276316916983,-0.1843943457683927,-0.10889918810845023
1715269997609704000,2.354703857421875,0.6213186979293823,1.5361101627349854,3.595019578933716,-0.2866692841053009,-0.5998748540878296,-0.7469744682312012,-0.3186163306236267,-0.2309662103652954,-0.14616817235946655,0.9303625812429213,0.3048703824994998,-0.18321246731250312,-0.08895378625139078
1715269997619694800,2.36469482421875,0.6184813976287842,1.569774866104126,3.4286961555480957,-0.29600653052330017,-0.5942683219909668,-0.7478136420249939,-0.2788226008415222,-0.2667241096496582,-0.10184144973754883,0.9322288487609539,0.3051620430260392,-0.18157448258780579,-0.06968661482987493
1715269997629685000,2.37468505859375,0.6233053803443909,1.5952656269073486,3.2725143432617188,-0.3039589822292328,-0.5888599753379822,-0.7489011287689209,-0.2477530539035797,-0.2864452004432678,-0.056808650493621826,0.9337236643901723,0.30550701644360684,-0.17948511715674784,-0.051095413013557134
1715269997639675000,2.3846748046875,0.6909847855567932,1.63068425655365,3.098881483078003,-0.31055575609207153,-0.5839448571205139,-0.7500423789024353,-0.23810452222824097,-0.29633474349975586,-0.013034343719482422,0.9348374771993211,0.3060458008881674,-0.17695985286042254,-0.03316768782595164
1715269997649665800,2.394665771484375,0.8179346919059753,1.6740161180496216,2.9095911979675293,-0.3156152367591858,-0.5801815390586853,-0.7508504390716553,-0.2432379126548767,-0.270938515663147,0.011760532855987549,0.9355059529106213,0.3071278511096796,-0.17391738759084185,-0.01593190271007383
1715269997659656000,2.404656005859375,0.9022380709648132,1.6686761379241943,2.7253363132476807,-0.3193243741989136,-0.5776933431625366,-0.7512006163597107,-0.2503777742385864,-0.25203388929367065,0.03451061248779297,0.9357350238518513,0.3087816936970166,-0.1704510326300451,0.0005349579213313471
1715269997669645600,2.4146455078125,1.0111628770828247,1.6277034282684326,2.5602736473083496,-0.3221884071826935,-0.5764150023460388,-0.7509596347808838,-0.2419595718383789,-0.25732529163360596,0.06274253129959106,0.9355299312747484,0.31096307254670946,-0.16679970624800836,0.016233695237673207
1715269997679636700,2.42463671875,1.102958083152771,1.620357632637024,2.390387535095215,-0.32425832748413086,-0.57635098695755,-0.7501173615455627,-0.21468210220336914,-0.2625010013580322,0.10189354419708252,0.9349246025235032,0.313674965768297,-0.16293962716006366,0.031219874560172556
1715269997689626600,2.434626708984375,1.120306134223938,1.5608950853347778,2.2229273319244385,-0.3256268799304962,-0.5771999955177307,-0.7488706707954407,-0.19141718745231628,-0.28321266174316406,0.12815845012664795,0.9340101282235221,0.3167138744012148,-0.1589244565222811,0.04539237314226019
1715269997699616800,2.44461669921875,1.1172478199005127,1.4959536790847778,2.0915584564208984,-0.3266654908657074,-0.5785624384880066,-0.7473655343055725,-0.1778969168663025,-0.2937825918197632,0.13931810855865479,0.9328627607112574,0.3198565629776207,-0.15494841868506323,0.058736137759156426
1715269997709607700,2.454607666015625,1.0748995542526245,1.4609477519989014,1.9635099172592163,-0.32738566398620605,-0.5801011919975281,-0.7458560466766357,-0.16861656308174133,-0.2839735746383667,0.16606789827346802,0.9315740449399763,0.3229259776793604,-0.1509661644471239,0.07139926922534573
1715269997719597600,2.46459765625,1.067111611366272,1.4329363107681274,1.8080517053604126,-0.32757192850112915,-0.5818560123443604,-0.74440598487854,-0.16759106516838074,-0.27777838706970215,0.19612723588943481,0.9301942947431564,0.325916878475341,-0.1468849655422822,0.08331698997626341
1715269997729587500,2.47458740234375,1.1496930122375488,1.377830982208252,1.6538769006729126,-0.327193021774292,-0.584405779838562,-0.7425729632377625,-0.1709911823272705,-0.25166910886764526,0.20048928260803223,0.9286374732681953,0.3291691285098287,-0.1426926646325733,0.09444007668299798
1715269997739577600,2.48457763671875,1.2064104080200195,1.3328100442886353,1.5344785451889038,-0.32648593187332153,-0.5879481434822083,-0.7400837540626526,-0.16686126589775085,-0.24000906944274902,0.18803608417510986,0.9268445301015404,0.3328462790744376,-0.13846115160275313,0.10488626615624413
1715269997749568800,2.49456884765625,1.2062586545944214,1.3072774410247803,1.4084972143173218,-0.32543808221817017,-0.5920902490615845,-0.7372375726699829,-0.1574263572692871,-0.2536434531211853,0.18631905317306519,0.9249101158533799,0.3367205671628536,-0.1341658485343431,0.11471733221232128
1715269997759558700,2.50455859375,1.1332826614379883,1.2758218050003052,1.2717028856277466,-0.32388588786125183,-0.596386194229126,-0.7344531416893005,-0.14744287729263306,-0.2488744854927063,0.1768512725830078,0.9229747454700997,0.3404932618306995,-0.12976042713482683,0.12387131292821829
1715269997769548500,2.514548583984375,1.0341432094573975,1.2383623123168945,1.1525404453277588,-0.3218914270401001,-0.6004083156585693,-0.7320489883422852,-0.15157359838485718,-0.22527527809143066,0.16764169931411743,0.921154753666507,0.34389864732242303,-0.1253364444378985,0.13228157986784195
1715269997779539700,2.524539794921875,0.9579672813415527,1.2242430448532104,1.0666258335113525,-0.31959715485572815,-0.6040856242179871,-0.7300261855125427,-0.15124332904815674,-0.21464002132415771,0.17645263671875,0.9194483021295586,0.34693169566259735,-0.12093516366225156,0.14009946035832993
1715269997789529600,2.534529541015625,0.9609007239341736,1.2175651788711548,0.994269609451294,-0.316908061504364,-0.6077997088432312,-0.7281131148338318,-0.1426866352558136,-0.2062566876411438,0.17801862955093384,0.917764045598475,0.3498444652704613,-0.116414300100411,0.14753178650394505
1715269997799519500,2.54451953125,0.9684305787086487,1.1657387018203735,0.8829265832901001,-0.3139415681362152,-0.6118026971817017,-0.7260427474975586,-0.14408153295516968,-0.17544400691986084,0.15545564889907837,0.9160584929557717,0.3527947211572602,-0.11186824738148776,0.15446073115402215
1715269997809510700,2.5545107421875,1.094260573387146,1.1204684972763062,0.8250629901885986,-0.3108478784561157,-0.616635262966156,-0.7232804298400879,-0.15901607275009155,-0.12420952320098877,0.13967758417129517,0.9141847826187155,0.35615270551914613,-0.1073081204567034,0.1609547883839072
1715269997819500800,2.564500732421875,1.1767733097076416,1.0508084297180176,0.7474086880683899,-0.3078957796096802,-0.6223652362823486,-0.7196260690689087,-0.1785391867160797,-0.06304425001144409,0.14363735914230347,0.91208178514967,0.3600172279543408,-0.10283272033177179,0.16709211893824705
1715269997829490700,2.57449072265625,1.3119186162948608,1.0044944286346436,0.6342743635177612,-0.3048708438873291,-0.6291376352310181,-0.7150101661682129,-0.1868284046649933,-0.027371704578399658,0.12664657831192017,0.9097653201502112,0.3644438144114004,-0.09836481990046259,0.17271940294976063
1715269997839481600,2.584481689453125,1.4204655885696411,0.961699903011322,0.5489426851272583,-0.30155861377716064,-0.6371196508407593,-0.709324300289154,-0.18522733449935913,0.017994225025177002,0.09637880325317383,0.9072132669891302,0.3695213858750161,-0.09376451490583668,0.1778378561556962
1715269997849471500,2.594471435546875,1.3925949335098267,0.9151752591133118,0.508391797542572,-0.29831069707870483,-0.6455176472663879,-0.7030773162841797,-0.18905505537986755,-0.016637563705444336,0.06356626749038696,0.9045384514731604,0.37483445199164356,-0.08922144627950429,0.1826169563439049
1715269997859461600,2.604461669921875,1.2689814567565918,0.9095330834388733,0.4617699384689331,-0.29508110880851746,-0.6534366607666016,-0.697099506855011,-0.18741708993911743,-0.09088706970214844,0.02391231060028076,0.9019629664371785,0.3798187550961395,-0.0847818333378546,0.18711681368604466
1715269997869451500,2.614451416015625,1.0439753532409668,0.8930841088294983,0.39968472719192505,-0.29164010286331177,-0.6602494120597839,-0.6921104192733765,-0.18905755877494812,-0.12748557329177856,0.0033745169639587402,0.8997096229703228,0.3840233136236934,-0.08044185203872495,0.19125332994987299
1715269997879442700,2.624442626953125,0.7744579315185547,0.9015281796455383,0.3469568192958832,-0.28791800141334534,-0.6654464602470398,-0.6886829733848572,-0.20401012897491455,-0.1461990475654602,-0.008216381072998047,0.8979499132064952,0.3870965861426744,-0.07625440148842541,0.19500654075174575
1715269997889432600,2.6344326171875,0.541929304599762,0.920005738735199,0.30862656235694885,-0.283831387758255,-0.6690364480018616,-0.6868987679481506,-0.20989727973937988,-0.16301006078720093,-0.01213681697845459,0.8966919692343588,0.3890295501323818,-0.07215690054443283,0.19847637845019353
1715269997899422700,2.644422607421875,0.3556414544582367,0.9163728952407837,0.24869821965694427,-0.27939969301223755,-0.6712796092033386,-0.6865271329879761,-0.20807287096977234,-0.15977507829666138,-0.01653677225112915,0.8958730220323945,0.3899912508682221,-0.0681413913178511,0.20168097509299568
1715269997909413600,2.65441357421875,0.29786375164985657,0.901776134967804,0.17450103163719177,-0.27453935146331787,-0.6728754639625549,-0.6869255900382996,-0.2013975977897644,-0.11247915029525757,-0.017481088638305664,0.8953421692775221,0.39041462192015153,-0.0641376621748187,0.20451212512839173
1715269997919403500,2.664403564453125,0.26376864314079285,0.849784255027771,0.13298366963863373,-0.269561767578125,-0.6744117736816406,-0.687390148639679,-0.1916046440601349,-0.052333831787109375,-0.01980888843536377,0.8949020645014913,0.39073916541947173,-0.06023143591611002,0.2069914133429878
1715269997929393400,2.674393310546875,0.18798503279685974,0.8023006319999695,0.09996241331100464,-0.2646709680557251,-0.6756526231765747,-0.6880717873573303,-0.17926830053329468,-0.04373824596405029,-0.022117972373962402,0.8945802967117047,0.3908560193504306,-0.056530402735593954,0.2091934055814869
1715269997939384600,2.684384521484375,0.09959951043128967,0.7695651054382324,0.052518729120492935,-0.25975123047828674,-0.6764291524887085,-0.6891828179359436,-0.16827309131622314,-0.035790085792541504,-0.010264754295349121,0.8944420578043496,0.39063927596414455,-0.05300527407561312,0.21110389676705446
1715269997949374700,2.694374755859375,-0.009525962173938751,0.7041892409324646,0.029422132298350334,-0.2549232840538025,-0.676651120185852,-0.6907658576965332,-0.17053759098052979,-0.029571473598480225,0.01605278253555298,0.8945008248834683,0.39005582935495803,-0.04973447597979558,0.21272369605747996
1715269997959364600,2.704364501953125,-0.14318469166755676,0.6421802043914795,0.027069495990872383,-0.2504523992538452,-0.6760486960411072,-0.6929875612258911,-0.17426079511642456,-0.0627819299697876,0.04946345090866089,0.8947842111776556,0.3889863261408268,-0.04685999305659108,0.2141376493411763
1715269997969355500,2.71435546875,-0.21001863479614258,0.600214958190918,0.0075826807878911495,-0.24623508751392365,-0.6747400760650635,-0.6957687139511108,-0.16923126578330994,-0.09454703330993652,0.08476102352142334,0.8952635075838934,0.3874960963492914,-0.04429922944586487,0.21537781271734155
1715269997979345700,2.724345703125,-0.23825480043888092,0.526630699634552,-0.015471771359443665,-0.24226893484592438,-0.6731848120689392,-0.6986616253852844,-0.1654917299747467,-0.08523803949356079,0.10884839296340942,0.8958233656611232,0.3858820155525776,-0.042003179209876534,0.2164056268574763
1715269997989335600,2.73433544921875,-0.24081549048423767,0.45319828391075134,-0.033382996916770935,-0.23866941034793854,-0.6715452671051025,-0.7014726400375366,-0.16498667001724243,-0.05831313133239746,0.1175798773765564,0.8964189726725346,0.3842679032828684,-0.04002304683244565,0.217185153012354
1715269997999325400,2.744325439453125,-0.15832246840000153,0.3988415598869324,-0.052462682127952576,-0.2353905886411667,-0.6702293157577515,-0.703835129737854,-0.155524343252182,-0.014066338539123535,0.12139195203781128,0.8969364938202657,0.3829088015308281,-0.03825296974389647,0.21776676730509062
1715269998009316600,2.754316650390625,-0.11051111668348312,0.32236677408218384,-0.052027586847543716,-0.23251725733280182,-0.6694232225418091,-0.7055553197860718,-0.13888172805309296,0.008336126804351807,0.11783260107040405,0.8973114152785381,0.3819375536189408,-0.036688448514914124,0.21819709737554085
1715269998019306800,2.764306640625,-0.05699995160102844,0.26972752809524536,-0.05843248963356018,-0.23006053268909454,-0.6689283847808838,-0.7068288326263428,-0.12871941924095154,-0.004853963851928711,0.10201627016067505,0.8975943858120999,0.3812290493265927,-0.03535524095543105,0.21849227903455812
1715269998029296600,2.774296630859375,0.011752375401556492,0.2687551975250244,-0.13127273321151733,-0.2277509719133377,-0.6689527630805969,-0.7075532674789429,-0.12825188040733337,0.013068974018096924,0.10155057907104492,0.8977589052878601,0.38086946325733145,-0.034085297058346065,0.21864473910390952
1715269998039287600,2.78428759765625,0.20685555040836334,0.127304345369339,-0.06075276806950569,-0.22549012303352356,-0.6701429486274719,-0.7071509957313538,-0.12353946268558502,0.017478764057159424,0.09609764814376831,0.8977031268360585,0.38124315591327795,-0.03283537073356821,0.21841347777285475
1715269998049277400,2.79427734375,-0.04113880172371864,0.13140934705734253,0.10008877515792847,-0.22488130629062653,-0.6708387136459351,-0.7066851258277893,-0.10861483216285706,-0.022993743419647217,0.06380188465118408,0.8974645717806398,0.38160030460237027,-0.03222784231177392,0.21886069213206297
1715269998059267600,2.804267578125,-0.21308472752571106,0.15127520263195038,0.0032352032139897346,-0.22423046827316284,-0.669593334197998,-0.7080716490745544,-0.10664114356040955,-0.16414690017700195,0.03657817840576172,0.8977284722630632,0.38072203972440033,-0.031857722979876074,0.21936120572243675
1715269998069258800,2.8142587890625,-0.11190000921487808,0.04431998357176781,-0.06550943851470947,-0.22324025630950928,-0.6685196757316589,-0.7093977332115173,-0.1249958872795105,-0.049299538135528564,0.05603170394897461,0.8980974736664711,0.37988020244971704,-0.03149864282377554,0.2193619818419835
1715269998079248600,2.82424853515625,-0.09886009991168976,-0.08370456099510193,-0.07167625427246094,-0.222930908203125,-0.6679682731628418,-0.7100142240524292,-0.11303716897964478,0.0497126579284668,0.0323866605758667,0.8983602692002146,0.379467873211104,-0.031575761763746546,0.21898834463277153
1715269998089238500,2.834238525390625,-0.16147516667842865,-0.13605138659477234,-0.09692654758691788,-0.2232077568769455,-0.66725754737854,-0.7105953693389893,-0.05216763913631439,-0.0024812817573547363,-0.020895719528198242,0.8986685621161423,0.3790427748724203,-0.03207646459620789,0.21838634877152713
1715269998099229700,2.844229736328125,-0.2881409823894501,-0.12112011015415192,-0.14583124220371246,-0.22332775592803955,-0.6659681797027588,-0.7117661833763123,-0.01213066279888153,-0.012269735336303711,-0.02991771697998047,0.8991936008411003,0.37821890347951015,-0.03267047933146339,0.2175639422090271
1715269998109219600,2.854219482421875,-0.4080439805984497,-0.08124992251396179,-0.20549462735652924,-0.22287864983081818,-0.6638503670692444,-0.7138822078704834,-0.02300150692462921,-0.06503146886825562,-0.031753718852996826,0.9000314766718122,0.37677369527988475,-0.03317361684482428,0.2165279285131437
1715269998119209500,2.86420947265625,-0.41706836223602295,-0.05248325690627098,-0.2456361949443817,-0.22183316946029663,-0.6613603830337524,-0.7165141105651855,-0.03256139159202576,-0.09433114528656006,-0.023582875728607178,0.9010524807185182,0.37499540929109887,-0.03348724246261084,0.21531682079322823
1715269998129199600,2.87419970703125,-0.35792720317840576,-0.05598051846027374,-0.22053298354148865,-0.2206442505121231,-0.6590744853019714,-0.7189832925796509,-0.02461029589176178,-0.08196860551834106,-0.017298996448516846,0.9020345724274623,0.3733258594375067,-0.03370700110323138,0.2140683431483273
1715269998139190800,2.884190673828125,-0.23408247530460358,-0.06643076241016388,-0.1624062955379486,-0.21982137858867645,-0.6573460102081299,-0.7208153605461121,-0.015560746192932129,-0.06225854158401489,-0.017984628677368164,0.9027881175734713,0.3720750628968466,-0.03394812948001941,0.21302885519401393
1715269998149180700,2.8941806640625,-0.08796170353889465,-0.06985078752040863,-0.12786069512367249,-0.21937066316604614,-0.6565096974372864,-0.7217143177986145,-0.009297579526901245,-0.012893378734588623,-0.016109168529510498,0.9032254855840698,0.3714512731871647,-0.03415855531342807,0.21222825686011373
1715269998159170600,2.904170654296875,0.008046320639550686,-0.08534853160381317,-0.11504051089286804,-0.21912075579166412,-0.6565070152282715,-0.7217926383018494,-0.008937135338783264,0.023999691009521484,-0.01218557357788086,0.9034126677790708,0.37138373995604307,-0.03431909904801653,0.2115226361678481
1715269998169161500,2.914161376953125,0.04507475346326828,-0.09369008243083954,-0.11081513017416,-0.21901653707027435,-0.6569642424583435,-0.7214081287384033,-0.010201022028923035,0.024182260036468506,-0.010784804821014404,0.9034631789943949,0.37162772695943463,-0.03447849920541149,0.21085137376238178
1715269998179151600,2.924151611328125,-0.0005164355970919132,-0.08889000117778778,-0.13540224730968475,-0.21887736022472382,-0.6574181914329529,-0.7210367321968079,0.0006918758153915405,0.01180356740951538,-0.009950757026672363,0.9035277096862854,0.37186251061817255,-0.03463981710299044,0.21013316171404867
1715269998189141500,2.9341416015625,-0.040461402386426926,-0.06560544669628143,-0.14398407936096191,-0.21853052079677582,-0.657630980014801,-0.7209479212760925,0.011392399668693542,0.005165159702301025,-0.009597063064575195,0.9036837901662212,0.37191186151382155,-0.034750742551248825,0.20935491402194228
1715269998199132700,2.944132568359375,-0.007416898384690285,-0.0674973577260971,-0.15075702965259552,-0.21809884905815125,-0.6579062342643738,-0.7208275198936462,0.01607242226600647,-0.012061476707458496,-0.00024175643920898438,0.9038340975253806,0.3719867240361051,-0.034815638545196176,0.2085608311157915
1715269998209122600,2.95412255859375,0.03441523760557175,-0.08518500626087189,-0.15522289276123047,-0.2176695019006729,-0.658489465713501,-0.7204245924949646,0.016085609793663025,-0.003528416156768799,0.002117156982421875,0.9039172728268481,0.3722531045694366,-0.03486138481502893,0.20771604871662644
1715269998219112700,2.96411279296875,0.053710103034973145,-0.08727851510047913,-0.14493882656097412,-0.2173597514629364,-0.6592800617218018,-0.719794750213623,0.01763741672039032,0.023553192615509033,-0.004402577877044678,0.9039365867324917,0.3726683437583055,-0.034941967267516916,0.20687174319811913
1715269998229103600,2.974103515625,0.06361865997314453,-0.06874051690101624,-0.17017494142055511,-0.2169477939605713,-0.6600133776664734,-0.7192468047142029,0.014967158436775208,0.03399103879928589,-0.007880210876464844,0.9039734710525311,0.3730331384414058,-0.03496948650499762,0.20604713820763848
1715269998239093500,2.984093505859375,0.05071777477860451,-0.061474088579416275,-0.1433534473180771,-0.2164478451013565,-0.6606124639511108,-0.718847393989563,0.012178406119346619,0.02718961238861084,-0.008432269096374512,0.9040453641714624,0.37330163047528603,-0.03495992983482654,0.2052457212497116
1715269998249083400,2.99408349609375,0.06389456987380981,-0.04706452414393425,-0.10345901548862457,-0.21613270044326782,-0.661110520362854,-0.7184842228889465,0.01509810984134674,0.014595568180084229,-0.013281464576721191,0.9040810673670333,0.37354311141263496,-0.03497763800218598,0.2046449919016599
1715269998259073500,3.004073486328125,0.07496292889118195,-0.041850585490465164,-0.10691260546445847,-0.21577610075473785,-0.6617459058761597,-0.7180063128471375,0.02429349720478058,0.024660944938659668,-0.012294530868530273,0.9040680860145237,0.3738676944792176,-0.03492544970816988,0.2041178350019539
1715269998269064700,3.014064697265625,0.07114129513502121,-0.04009662941098213,-0.07040492445230484,-0.21540555357933044,-0.662406325340271,-0.7175083160400391,0.017697393894195557,0.02786964178085327,-0.011632800102233887,0.9040372747368798,0.3742084035406823,-0.0348411339277552,0.2036434477874984
1715269998279054600,3.0240546875,0.03210584819316864,-0.015272239223122597,-0.030815642327070236,-0.21508754789829254,-0.6629436016082764,-0.7171074748039246,0.00953635573387146,0.007578611373901367,-0.0068457722663879395,0.9039940708120026,0.37448657493561643,-0.03472864807672968,0.20334315669012337
1715269998289044700,3.034044677734375,-0.007005972787737846,0.005776587873697281,-0.017268406227231026,-0.2146473377943039,-0.6631064414978027,-0.7170888185501099,0.012437820434570312,0.01740020513534546,0.007799327373504639,0.9040254872335416,0.37451602183162136,-0.03454474363088758,0.2031804594704818
1715269998299035600,3.04403564453125,-0.025453954935073853,0.015978092327713966,0.011669767089188099,-0.2142154425382614,-0.6625043153762817,-0.7177742123603821,0.003811955451965332,0.03452885150909424,0.022324442863464355,0.9042144817487804,0.3740718115434688,-0.034397439197318164,0.20318307517528714
1715269998309025500,3.054025634765625,-0.031071683391928673,0.010494643822312355,0.04041652753949165,-0.21407942473888397,-0.661677360534668,-0.7185771465301514,-0.006715312600135803,0.019679009914398193,0.024515867233276367,0.9043982362635618,0.37353778749998373,-0.03436507316937984,0.203352926271077
1715269998319015400,3.064015380859375,-0.04694918170571327,0.006538518238812685,0.06778983026742935,-0.21421721577644348,-0.6608836054801941,-0.7192662358283997,-0.0009470134973526001,0.019281983375549316,0.016919434070587158,0.9045261983965501,0.3730706197116021,-0.03442681910555495,0.20363073856639732
1715269998329006600,3.074006591796875,-0.06378541886806488,0.007791269104927778,0.06714320927858353,-0.2143913209438324,-0.6600969433784485,-0.7199364304542542,0.00726848840713501,0.025071918964385986,0.009044766426086426,0.9046410714655959,0.37261516081256973,-0.03449240702914469,0.20394343183900393
1715269998338996700,3.083996826171875,-0.06848030537366867,0.005701753310859203,0.06426699459552765,-0.21441273391246796,-0.6592106223106384,-0.7207416892051697,0.004192337393760681,0.012909352779388428,0.008781909942626953,0.9048045878541839,0.37207259935970544,-0.03451275417829955,0.20420494988205853
1715269998348986600,3.093986572265625,-0.042248278856277466,-0.0028667012229561806,0.05704137682914734,-0.21455207467079163,-0.6584060192108154,-0.7214353084564209,0.0010510534048080444,-0.0003006458282470703,0.0005338788032531738,0.9049363123269523,0.37159976532054895,-0.03458260029853816,0.20446994459136547
1715269998358977500,3.1039775390625,-0.03411604464054108,-0.01770823262631893,0.048060398548841476,-0.21483071148395538,-0.658014714717865,-0.7217093110084534,0.0013296902179718018,-0.00658184289932251,-0.00541764497756958,0.904970476218978,0.3714040459196008,-0.03470417179397195,0.2046534060505804
1715269998368967400,3.113967529296875,-0.020699894055724144,-0.018868038430809975,0.04282023012638092,-0.21511171758174896,-0.65772944688797,-0.7218856811523438,0.004143640398979187,-0.0032355189323425293,-0.01151275634765625,0.9049902377610296,0.37127299873797914,-0.034835799286305424,0.20478138258678172
1715269998378957600,3.12395751953125,0.012533692643046379,-0.003885360434651375,0.019564175978302956,-0.2154846489429474,-0.657545268535614,-0.7219422459602356,0.004882782697677612,0.00030344724655151367,-0.010250687599182129,0.9049742106308524,0.37121973443264533,-0.03499703795625311,0.20492150205755857
1715269998388947700,3.13394775390625,0.07357238978147507,0.005680713802576065,0.0006524698110297322,-0.21580541133880615,-0.6579211354255676,-0.7215039134025574,0.004593208432197571,0.0009691715240478516,-0.012489557266235352,0.9048325865097031,0.37150724379811384,-0.03507737456339785,0.20501228889350276
1715269998398938600,3.143938720703125,0.11769084632396698,0.007831483148038387,-0.009147696197032928,-0.2158583551645279,-0.6586357355117798,-0.7208357453346252,-0.000038310885429382324,0.002095818519592285,-0.014012277126312256,0.9046408389457388,0.371964114818509,-0.03499769106951764,0.20504353191941985
1715269998408928500,3.153928466796875,0.32985448837280273,-0.05793314799666405,-0.05330830067396164,-0.21579989790916443,-0.6598939299583435,-0.7197015881538391,-0.0009054690599441528,-0.004305899143218994,-0.009836256504058838,0.9043527977682864,0.3727397075013379,-0.034846992251590186,0.20493113336855953
1715269998418918700,3.163918701171875,0.25438156723976135,-0.09135422110557556,-0.13578559458255768,-0.21556434035301208,-0.6623095273971558,-0.7175501585006714,0.0017886608839035034,-0.005659282207489014,-0.0027562379837036133,0.9038711124222639,0.374201862663681,-0.034610590718603035,0.20443151559596628
1715269998428909600,3.17390966796875,0.14721912145614624,-0.11702416837215424,-0.0669010728597641,-0.21553894877433777,-0.6637985110282898,-0.7161805629730225,-0.002997487783432007,-0.022251904010772705,0.014047384262084961,0.9036347524212707,0.37511102346082936,-0.034661846621036996,0.20380052536928145
1715269998438899500,3.1838994140625,0.16957662999629974,-0.11372290551662445,0.007849062792956829,-0.2161898910999298,-0.6648565530776978,-0.7150018811225891,0.005328640341758728,0.008972764015197754,0.023794054985046387,0.9033754477706011,0.3758657779263586,-0.03498520268595218,0.20350394768430918
1715269998448889600,3.1938896484375,0.2390689253807068,-0.12625627219676971,-0.03214515745639801,-0.2168145775794983,-0.6661118865013123,-0.7136430740356445,0.02492000162601471,0.02711951732635498,0.04012012481689453,0.9030509977085516,0.376744623005005,-0.0352414096503732,0.20327430601318103
1715269998458880800,3.203880859375,0.2697051465511322,-0.1403380036354065,-0.0533769428730011,-0.21730227768421173,-0.6678079962730408,-0.7119073867797852,0.0005206167697906494,0.02220863103866577,0.02407175302505493,0.9026625733539012,0.37787570554114513,-0.035443625118465355,0.20286433680306767
1715269998468870700,3.21387060546875,0.19474807381629944,-0.11211888492107391,-0.03531072661280632,-0.2177494764328003,-0.6692529320716858,-0.710412323474884,-0.02610127627849579,0.046495914459228516,0.015542387962341309,0.902337367135333,0.3788439228890116,-0.03565283786000559,0.20246821810170143
1715269998478860500,3.223860595703125,0.0975046157836914,-0.07952632009983063,-0.03229496255517006,-0.2181200087070465,-0.6699860095977783,-0.7096071839332581,-0.009663239121437073,0.01056218147277832,0.012463688850402832,0.902174164036736,0.37935511688279944,-0.035862129542322596,0.20220135134461723
1715269998488851500,3.2338515625,-0.04465401545166969,-0.053296320140361786,-0.06176583096385002,-0.21820229291915894,-0.6700558662414551,-0.7095159292221069,0.002915993332862854,-0.006061136722564697,0.015012204647064209,0.9022198183786314,0.3793994216817427,-0.03602923000310421,0.20188449800655056
1715269998498841600,3.243841552734375,-0.20449641346931458,-0.02492273598909378,-0.0699089765548706,-0.21793287992477417,-0.6691591143608093,-0.710444450378418,-0.005028590559959412,-0.015502750873565674,0.007395803928375244,0.902565027077451,0.37877355218859887,-0.036171265697833854,0.2014911605566242
1715269998508831500,3.25383154296875,-0.33873793482780457,0.016506463289260864,-0.08268176764249802,-0.21743911504745483,-0.6676758527755737,-0.7119896411895752,-0.0037065446376800537,-0.03230583667755127,0.0021508336067199707,0.9030909978146536,0.37774080963140455,-0.036291212047843635,0.20105133359942254
1715269998518821600,3.263821533203125,-0.5840204358100891,0.09518076479434967,-0.11771618574857712,-0.21641024947166443,-0.6647298336029053,-0.7150530815124512,0.000925600528717041,-0.04771828651428223,-0.004200398921966553,0.9040386734384964,0.37570468912828187,-0.03632407121253009,0.2006010616626217
1715269998528812500,3.2738125,-0.8309828042984009,0.2851980924606323,-0.14493921399116516,-0.2140548974275589,-0.6599441170692444,-0.7201764583587646,-0.00043793022632598877,-0.06515353918075562,-0.0170670747756958,0.9055530835175398,0.3723214153076707,-0.03589599493168885,0.20015427111653505
1715269998538802700,3.283802734375,-0.5260553956031799,0.2977626323699951,-0.08966105431318283,-0.21087203919887543,-0.6549921631813049,-0.7256157398223877,-0.009205535054206848,-0.08782094717025757,-0.026322126388549805,0.9070181692684932,0.36875565774631913,-0.03480525838265422,0.20031425405811296
1715269998548792600,3.29379248046875,-0.046623047441244125,0.0682666003704071,-0.18565554916858673,-0.20859293639659882,-0.653333842754364,-0.7277663946151733,-0.050211429595947266,-0.05801570415496826,-0.042298853397369385,0.9076785429574954,0.367374407587812,-0.033953509079098804,0.200007390805758
1715269998558783500,3.303783447265625,0.07882968336343765,0.013006270863115788,-0.12532855570316315,-0.20734268426895142,-0.6539808511734009,-0.727542519569397,-0.07122179865837097,0.07202589511871338,-0.06269484758377075,0.9077728407418995,0.3675678206885094,-0.033505872114933166,0.1992982433593225
1715269998568773600,3.313773681640625,-0.04978012293577194,0.11217279732227325,-0.08234035223722458,-0.2062656283378601,-0.6543115973472595,-0.7275512218475342,0.032605335116386414,0.06526130437850952,-0.06686705350875854,0.9078430954202799,0.3676052169749441,-0.03302727111698553,0.19898856301178355
1715269998578763800,3.323763671875,-0.09830637276172638,0.1523662954568863,-0.145790696144104,-0.2045561671257019,-0.6539295315742493,-0.7283768653869629,0.05247178673744202,0.03279000520706177,-0.02243173122406006,0.9081269009227315,0.36710897719967484,-0.032288749586392274,0.1987306379524509
1715269998588754700,3.333754638671875,-0.003670310601592064,0.12783432006835938,-0.19612690806388855,-0.20236167311668396,-0.6538829803466797,-0.7290313839912415,-0.009872868657112122,-0.013338088989257812,0.00809943675994873,0.9084281899538518,0.3667423789641992,-0.031374133959213596,0.19817641236099007
1715269998598744600,3.34374462890625,0.10160018503665924,0.09317807853221893,-0.1700708121061325,-0.20035122334957123,-0.654655933380127,-0.728892982006073,-0.028606951236724854,-0.03290510177612305,0.013911962509155273,0.9085278668223388,0.3669118552182091,-0.030482625351756637,0.19754416281260195
1715269998608734700,3.353734619140625,0.12529395520687103,0.0776640921831131,-0.1348000168800354,-0.19877751171588898,-0.6558282375335693,-0.7282697558403015,-0.0019061267375946045,-0.0007116794586181641,0.009519755840301514,0.9084669175595281,0.3673988737905518,-0.029718666354167506,0.19703471319278992
1715269998618725600,3.3637255859375,0.0781852975487709,0.0768161416053772,-0.09468057751655579,-0.19746020436286926,-0.6568252444267273,-0.7277293801307678,0.01572798192501068,0.02094566822052002,0.009971261024475098,0.9083998146832477,0.3678192566773582,-0.029057106178074804,0.19665808755041356
1715269998628715500,3.373715576171875,0.018018366768956184,0.07864733040332794,-0.05330483615398407,-0.1964106410741806,-0.6573273539543152,-0.7275599837303162,0.004729703068733215,0.009088218212127686,0.014226913452148438,0.9083919678745386,0.36797651094336015,-0.028518241211558104,0.19647879839076485
1715269998638705400,3.383705322265625,-0.02478395774960518,0.06418450176715851,-0.033236853778362274,-0.19561803340911865,-0.6573739051818848,-0.7277315258979797,-0.002593681216239929,-0.008367061614990234,0.01633632183074951,0.9084508223526169,0.3678905926280588,-0.02812050856650891,0.1964250187412285
1715269998648695800,3.39369580078125,-0.04446844756603241,0.04324300214648247,0.0048744454979896545,-0.19513057172298431,-0.6571263670921326,-0.7280858159065247,0.0036785006523132324,-0.022591710090637207,0.011609435081481934,0.9085426080622858,0.3676675152265965,-0.027886930457188402,0.19645147078923073
1715269998658686700,3.403686767578125,-0.004250186961144209,0.022181659936904907,0.034006498754024506,-0.195029616355896,-0.6568921208381653,-0.7283242344856262,0.01532679796218872,-0.016768217086791992,0.007697463035583496,0.9085761471223031,0.3675116599413696,-0.027804096712561482,0.1965996560047118
1715269998668676000,3.413676025390625,0.0412403866648674,0.004431158769875765,0.030118416994810104,-0.1951667070388794,-0.6569657921791077,-0.72822105884552,0.019324392080307007,0.003355562686920166,0.0064498186111450195,0.9085085542406871,0.3675826828137986,-0.02779290548893021,0.196780935308396
1715269998678666200,3.423666259765625,0.041088320314884186,0.008220570161938667,0.017784252762794495,-0.19541476666927338,-0.65732342004776,-0.7278317213058472,0.010646030306816101,0.014211177825927734,0.005770623683929443,0.9083732751300355,0.36784500437153606,-0.02782411547067004,0.19691092338496052
1715269998688657400,3.433657470703125,0.03918948769569397,0.018541650846600533,-0.008093883283436298,-0.19537962973117828,-0.6576176881790161,-0.7275753021240234,0.002249106764793396,0.006189405918121338,0.010931015014648438,0.9082888799511399,0.3680254224613726,-0.027742474402011608,0.19697453729509037
1715269998698647300,3.443647216796875,0.06404849886894226,0.01816401444375515,-0.03789998218417168,-0.1950354129076004,-0.6579630970954895,-0.7273553609848022,-0.00039918720722198486,-0.00037741661071777344,0.019591689109802246,0.9082427818639869,0.3681895713576162,-0.027545676603777214,0.19690819767435017
1715269998708637200,3.45363720703125,0.1351930797100067,0.015475021675229073,-0.06976357102394104,-0.19454479217529297,-0.6588037610054016,-0.7267255783081055,0.0005902796983718872,0.00034117698669433594,0.02494335174560547,0.9081135242524028,0.36863782831129693,-0.027264893762737136,0.1967046663539257
1715269998718628000,3.463628173828125,0.1903543323278427,0.0050823017954826355,-0.09086965769529343,-0.1940164566040039,-0.6603440642356873,-0.7254677414894104,-0.00004488229751586914,0.0075272321701049805,0.0266152024269104,0.9078379929944348,0.36951477377962477,-0.02692532375511117,0.19637751738697776
1715269998728618200,3.4736181640625,0.19571390748023987,-0.0004906291142106056,-0.11942367255687714,-0.19324080646038055,-0.6622436046600342,-0.7239416241645813,-0.002880468964576721,0.027737319469451904,0.026080965995788574,0.9075219326168473,0.3705783393580842,-0.026474263712569696,0.19589495656522923
1715269998738608000,3.483608154296875,0.12755721807479858,0.001742697786539793,-0.12099041044712067,-0.1921830177307129,-0.6638392210006714,-0.722760796546936,-0.007157832384109497,0.026891589164733887,0.02941673994064331,0.9073273158041592,0.37140998840610817,-0.025965739937277826,0.1952884664618846
1715269998748599300,3.493599365234375,0.05956687405705452,0.0076903351582586765,-0.09862498193979263,-0.19122478365898132,-0.6646551489830017,-0.7222648859024048,-0.009199455380439758,0.002896726131439209,0.03258293867111206,0.907297025307631,0.3717715134463173,-0.025563486411481096,0.19479360448389899
1715269998758589200,3.503589111328125,0.03185029327869415,-0.0007841093465685844,-0.09331836551427841,-0.19053854048252106,-0.6650126576423645,-0.7221171259880066,-0.005048662424087524,-0.010753333568572998,0.03653985261917114,0.9073429173204735,0.37188718284992484,-0.025324861797469206,0.19438943569756675
1715269998768579300,3.513579345703125,0.02252906933426857,-0.015259988605976105,-0.09328588098287582,-0.19000577926635742,-0.6653275489807129,-0.7219675183296204,-0.00938086211681366,0.004118442535400391,0.03898411989212036,0.9073922345337982,0.3719976443508319,-0.025179517971572918,0.19396679716249415
1715269998778569200,3.5235693359375,-0.0026567112654447556,-0.014165163040161133,-0.07290470600128174,-0.18964119255542755,-0.6655913591384888,-0.7218201756477356,-0.01800045371055603,0.0067473649978637695,0.03520524501800537,0.9074375784607307,0.372100628258755,-0.02512030703952503,0.1935645465810474
1715269998788560100,3.53356005859375,-0.03223106265068054,-0.019604135304689407,-0.05573150888085365,-0.18942491710186005,-0.6656579375267029,-0.7218155860900879,-0.015470162034034729,0.00826352834701538,0.033430635929107666,0.9075051933925623,0.37210297015972865,-0.025131241976858926,0.19324147603551897
1715269998798550000,3.543550048828125,-0.052578143775463104,-0.02781173214316368,-0.05101025849580765,-0.18932534754276276,-0.6654609441757202,-0.7220233082771301,-0.008016616106033325,0.015161871910095215,0.0320514440536499,0.907622690930715,0.3719573550717937,-0.02522042246657205,0.19295772549651286
1715269998808540400,3.55354052734375,-0.05537792667746544,-0.034325823187828064,-0.039062317460775375,-0.18935126066207886,-0.6650856137275696,-0.7223622798919678,-0.007304057478904724,0.012482404708862305,0.03034573793411255,0.9077682398475937,0.371718458861523,-0.025381872342456063,0.1927124444906833
1715269998818531300,3.56353125,-0.05034694820642471,-0.042376559227705,-0.055378708988428116,-0.18943415582180023,-0.6647686958312988,-0.722632110118866,-0.008609697222709656,0.004536151885986328,0.028189480304718018,0.907897976246425,0.37152387319843705,-0.025572340891627687,0.19245063179324934
1715269998828521200,3.573521240234375,-0.061062656342983246,-0.046661585569381714,-0.07328007370233536,-0.18942217528820038,-0.6645898818969727,-0.7227997779846191,-0.006409168243408203,0.004754066467285156,0.02849435806274414,0.9080259365702972,0.371399021413881,-0.025746604545356877,0.19206433404220938
1715269998838511000,3.583510986328125,-0.05867379903793335,-0.047690629959106445,-0.09174484014511108,-0.18926721811294556,-0.6644474267959595,-0.7229713201522827,-0.004076957702636719,0.008121132850646973,0.028040289878845215,0.9081741647446586,0.37127433634534407,-0.02587896986243829,0.19158607733357028
1715269998848502300,3.593502197265625,-0.04242894425988197,-0.059969667345285416,-0.09899356961250305,-0.18910731375217438,-0.6643776297569275,-0.7230772972106934,-0.0015512853860855103,0.00541156530380249,0.02614736557006836,0.9083157012234779,0.37119295789366513,-0.026021975258714747,0.19105290158668856
1715269998858492200,3.6034921875,-0.024920525029301643,-0.06991790235042572,-0.10283384472131729,-0.1890534907579422,-0.6643986701965332,-0.7230719923973083,0.0033539682626724243,0.008148670196533203,0.022953033447265625,0.908434480187426,0.3711822106509505,-0.02622512144605857,0.19048040516086429
1715269998868482300,3.613482421875,-0.016670264303684235,-0.07842829823493958,-0.09584704041481018,-0.18904167413711548,-0.6645348072052002,-0.7229499816894531,0.006317645311355591,0.006682634353637695,0.0167580246925354,0.9085232052875977,0.3712491080655862,-0.02644089335611613,0.18989586460436766
1715269998878473200,3.62347314453125,-0.039001137018203735,-0.08285315334796906,-0.08038206398487091,-0.18912681937217712,-0.6645389199256897,-0.722923994064331,0.0036104172468185425,0.005984842777252197,0.012032270431518555,0.9086280813362493,0.3712477591045318,-0.026704156761428954,0.1893594316180442
1715269998888463400,3.63346337890625,-0.03730534017086029,-0.08773098886013031,-0.0716283842921257,-0.1893404871225357,-0.6644355058670044,-0.7229630351066589,0.0007265657186508179,0.0057288408279418945,0.009523153305053711,0.9087421855572296,0.3711977456481642,-0.027031794582173058,0.18886244164334431
1715269998898453200,3.643453369140625,0.016564281657338142,-0.08281560242176056,-0.07289178669452667,-0.189558207988739,-0.6645656228065491,-0.7227864861488342,0.00021184980869293213,0.003921031951904297,0.010338366031646729,0.9087944630934965,0.37129495214045055,-0.027328149720313583,0.18837701548480912
1715269998908443100,3.653443115234375,0.054228462278842926,-0.0936535894870758,-0.048718273639678955,-0.189860999584198,-0.6650522947311401,-0.7222591042518616,-0.0005992501974105835,0.0037058591842651367,0.001617133617401123,0.9087399158197357,0.37162933647101704,-0.02760606513035016,0.18793931499129135
1715269998918434000,3.66343408203125,0.0735185369849205,-0.09809628129005432,-0.03701634332537651,-0.19034327566623688,-0.6656557321548462,-0.721575915813446,-0.0002237856388092041,0.011175751686096191,-0.0031859278678894043,0.9086254347466297,0.3720644013875431,-0.027930569024027213,0.18758368678839493
1715269998928424200,3.673424072265625,0.07818503677845001,-0.10200127959251404,-0.03982019051909447,-0.1908591091632843,-0.6663557291030884,-0.7207932472229004,0.003328561782836914,0.02327406406402588,0.0006241798400878906,0.9084809090653636,0.37256540540605926,-0.0282560606845228,0.18724084400922214
1715269998938414300,3.683414306640625,0.0346551351249218,-0.10145719349384308,-0.032700229436159134,-0.19132505357265472,-0.6668978929519653,-0.7201679348945618,0.005656063556671143,0.017361760139465332,-0.002396702766418457,0.908382679702213,0.37295994591962955,-0.028581689083978234,0.18688177540837114
1715269998948405200,3.6934052734375,0.0061863684095442295,-0.09298621118068695,-0.015532425604760647,-0.19182458519935608,-0.6671013832092285,-0.7198466062545776,0.008322343230247498,0.0012230873107910156,-0.003618299961090088,0.9083542202622925,0.3731477635422713,-0.028938599719973507,0.1865904005922368
1715269998958395100,3.70339501953125,0.0032829903066158295,-0.08348618447780609,-0.02021932229399681,-0.19228404760360718,-0.667164146900177,-0.7196657657623291,0.014503851532936096,-0.000606238842010498,0.0024111270904541016,0.908357993640505,0.37324233902255277,-0.02927932745541484,0.18632910637975014
1715269998968385300,3.71338525390625,0.009792821481823921,-0.08469924330711365,-0.015076759271323681,-0.19273588061332703,-0.6672235131263733,-0.7194898128509521,0.012132823467254639,0.002276003360748291,-0.0018693208694458008,0.9083596882020821,0.37333410710959714,-0.02960962691112834,0.18608464875073832
1715269998978376200,3.723376220703125,0.021248675882816315,-0.08839492499828339,0.0166058037430048,-0.19333936274051666,-0.6673259139060974,-0.7192329168319702,0.005015328526496887,0.002271592617034912,-0.010182976722717285,0.9083210151090122,0.37347671115917674,-0.02997807021160462,0.1859285133282531
1715269998988366000,3.733365966796875,0.04898400604724884,-0.08664682507514954,0.04726884141564369,-0.19412879645824432,-0.6674456596374512,-0.7189090847969055,0.006247296929359436,0.006816387176513672,-0.010308384895324707,0.9082351235417162,0.37366059182236966,-0.030384392487839668,0.18591264379315547
1715269998998356200,3.743356201171875,0.07121340930461884,-0.09753301739692688,0.08711319416761398,-0.19518283009529114,-0.6676084995269775,-0.7184723615646362,0.01100921630859375,0.004995524883270264,-0.006457388401031494,0.9080853318110157,0.37391384345602885,-0.030858495082749016,0.1860569557244104
1715269999008347400,3.753347412109375,0.061640143394470215,-0.10879340767860413,0.12613242864608765,-0.19656695425510406,-0.6676538586616516,-0.7180527448654175,0.008578628301620483,0.007146656513214111,-0.008174002170562744,0.9079031311719589,0.3741454368684796,-0.0314456763732687,0.18638166331620853
1715269999018337300,3.763337158203125,0.03806903958320618,-0.11985643208026886,0.16061130166053772,-0.19819138944149017,-0.6675586104393005,-0.7176946997642517,0.007303908467292786,0.01991450786590576,-0.009203433990478516,0.907716032713527,0.37432630645665643,-0.03213204146794646,0.18681275430571032
1715269999028327200,3.7733271484375,0.024124782532453537,-0.10249662399291992,0.18199069797992706,-0.1999179869890213,-0.6673910617828369,-0.7173715829849243,0.007001087069511414,0.023149728775024414,-0.004384398460388184,0.9075132424714014,0.37448145470040084,-0.03283082179115704,0.1873646543058491
1715269999038318000,3.783318115234375,0.0071271569468081,-0.07388867437839508,0.1546671986579895,-0.2013666331768036,-0.6672093868255615,-0.7171353697776794,0.008266627788543701,0.016849279403686523,-0.004071235656738281,0.9073357703180452,0.37458979077256105,-0.03338872608856597,0.18790830945412534
1715269999048308200,3.79330810546875,0.007563382387161255,-0.05212932080030441,0.11603298783302307,-0.20234419405460358,-0.6669848561286926,-0.7170690894126892,0.006924822926521301,0.017708122730255127,-0.010302126407623291,0.9072244191821776,0.3746022331880953,-0.03374367091506808,0.1883571573165848
1715269999058298400,3.80329833984375,0.017412284389138222,-0.04150144383311272,0.07475292682647705,-0.20304235816001892,-0.6668078303337097,-0.7170363664627075,0.0013669133186340332,0.006941497325897217,-0.01544654369354248,0.9071493325120783,0.3746008696401861,-0.034000247340237544,0.18867516342401824
1715269999068288300,3.813288330078125,0.006209325045347214,-0.0409669503569603,0.05727899819612503,-0.20351912081241608,-0.6666575074195862,-0.7170409560203552,-0.0006130039691925049,-0.013976097106933594,-0.01495361328125,0.9071125826209351,0.3745802140988228,-0.0341932166314147,0.1888579854386672
1715269999078279200,3.823279052734375,-0.05963786691427231,-0.030344665050506592,0.0431477315723896,-0.20380698144435883,-0.6663163900375366,-0.7172762751579285,0.009913519024848938,-0.026219069957733154,-0.013848543167114258,0.907153532088511,0.3744098540563885,-0.03433840864903176,0.18897281337826544
1715269999088269300,3.833269287109375,-0.11465440690517426,-0.028117729350924492,0.006176465190947056,-0.2039281576871872,-0.6655510067939758,-0.7179520130157471,0.011255383491516113,-0.01814955472946167,-0.005879044532775879,0.9073377548056973,0.373944271576373,-0.03449150594166267,0.1889817291627419
1715269999098259200,3.84325927734375,-0.12683703005313873,-0.027423176914453506,-0.029231060296297073,-0.20385907590389252,-0.6644937992095947,-0.7189502120018005,0.0007645636796951294,0.0022318363189697266,0.0011768341064453125,0.9076442530716672,0.37326202547127324,-0.03464596727989741,0.18883069347409348
1715269999108250000,3.85325,-0.13012635707855225,-0.02383003942668438,-0.03165260702371597,-0.2037024050951004,-0.6634566783905029,-0.7199518084526062,-0.006777361035346985,-0.0030319690704345703,0.0012934207916259766,0.907964001403883,0.37257847302501934,-0.03477630023829981,0.18861952963616196
1715269999118240000,3.863239990234375,-0.14795489609241486,-0.016989711672067642,-0.03674456849694252,-0.20347709953784943,-0.6624419689178467,-0.7209492325782776,-0.0031269341707229614,-0.021136581897735596,-0.006772935390472412,0.9082845906014417,0.3718996635252699,-0.03487171336521608,0.18839789398552068
1715269999128230400,3.87323046875,-0.16502128541469574,-0.008259869180619717,-0.04003769904375076,-0.20319955050945282,-0.6612240076065063,-0.722144603729248,-0.0013445764780044556,-0.025284230709075928,-0.009666919708251953,0.9086598226109859,0.37108650610812566,-0.034964314982056294,0.18817473053888117
1715269999138221300,3.88322119140625,-0.1538863331079483,0.00498802587389946,-0.07067283987998962,-0.20282815396785736,-0.6600890755653381,-0.7232863903045654,-0.00797206163406372,-0.01582956314086914,-0.011912524700164795,0.9090286071395066,0.37031178493982286,-0.03501391341406965,0.18791038446457337
1715269999148211200,3.893211181640625,-0.19699731469154358,0.013143690302968025,-0.10346528142690659,-0.20214088261127472,-0.6591399908065796,-0.7243435382843018,-0.011619538068771362,-0.00667726993560791,-0.011572599411010742,0.909409502750224,0.3696039167404154,-0.03494534908523261,0.1874731545908796
1715269999158201300,3.903201416015625,-0.22819732129573822,0.033794108778238297,-0.07850613445043564,-0.20116205513477325,-0.6580104827880859,-0.7256418466567993,-0.008905753493309021,-0.017999649047851562,-0.018529295921325684,0.9098644752473304,0.36874214259095234,-0.03476086980177742,0.18699610735842137
1715269999168192300,3.913192138671875,-0.21333016455173492,0.043474432080984116,-0.04356372728943825,-0.2003117948770523,-0.6567354202270508,-0.7270308136940002,-0.0008143335580825806,-0.03277873992919922,-0.01640784740447998,0.9103081340888414,0.3678153940168283,-0.03458939174829323,0.1866939108942145
1715269999178182100,3.92318212890625,-0.14404404163360596,0.042744457721710205,-0.02738742157816887,-0.19981881976127625,-0.6555614471435547,-0.7282249927520752,0.0016223788261413574,-0.021486341953277588,-0.01944035291671753,0.9106588295990372,0.3670097795588325,-0.034515496168409626,0.1865824103573147
1715269999188172300,3.93317236328125,-0.05383366346359253,0.03505644574761391,-0.017054954543709755,-0.19951020181179047,-0.6549627780914307,-0.7288479804992676,-0.011152654886245728,-0.001226186752319336,-0.02243363857269287,0.9108366719981609,0.3665924277398813,-0.034438302655460024,0.18654894588122545
1715269999198162400,3.943162353515625,0.004341224208474159,0.021447958424687386,0.011036334559321404,-0.19931454956531525,-0.6549555063247681,-0.728908121585846,-0.01771126687526703,0.008349061012268066,-0.024494528770446777,0.9108491485294443,0.36656170804533494,-0.03432873520243565,0.18656878792422882
1715269999208153300,3.9531533203125,0.018929220736026764,0.02112518437206745,0.025107745081186295,-0.19928956031799316,-0.6551355719566345,-0.7287530899047852,-0.010061070322990417,0.008559644222259521,-0.025229454040527344,0.9107816606614041,0.3666752181609939,-0.03424537311329409,0.18669034994570072
1715269999218143200,3.963143310546875,0.030191995203495026,0.02003302238881588,0.038901057094335556,-0.19940149784088135,-0.6553127765655518,-0.7285630702972412,-0.002167150378227234,-0.0016849040985107422,-0.019025981426239014,0.9106901679491448,0.3668084313032343,-0.034205691831665025,0.1868821962616563
1715269999228133000,3.973133056640625,0.05658717080950737,0.01745668053627014,0.05459173396229744,-0.19965176284313202,-0.6555467844009399,-0.7282840609550476,-0.0038089752197265625,-0.007768094539642334,-0.012240171432495117,0.9105584466561736,0.36699903252745947,-0.03420066331394017,0.18715083909596886
1715269999238124000,3.9831240234375,0.05456343665719032,0.024154262617230415,0.06485208868980408,-0.19994184374809265,-0.6558595895767212,-0.7279226779937744,-0.008569568395614624,-0.000451505184173584,-0.01182335615158081,0.9103912437312502,0.36724682675114534,-0.03418217555764938,0.18748089968600817
1715269999248114400,3.993114501953125,0.049605533480644226,0.029269397258758545,0.060081373900175095,-0.2001464068889618,-0.6561917066574097,-0.7275671362876892,-0.010577544569969177,0.0029018521308898926,-0.012224733829498291,0.9102251485227117,0.3674950061806022,-0.034115449815529414,0.1878133451118491
1715269999258104300,4.003104248046875,0.04795277863740921,0.03711613640189171,0.0343022421002388,-0.20018020272254944,-0.6564765572547913,-0.727300763130188,-0.012863069772720337,0.004392147064208984,-0.007440388202667236,0.9100936270462935,0.36768822947055335,-0.03398495437583904,0.18809580196289905
1715269999268095200,4.01309521484375,0.06905257701873779,0.04430161044001579,-0.01446449849754572,-0.1999935805797577,-0.6567423343658447,-0.7271121740341187,-0.014957025647163391,0.007938623428344727,-0.0027766823768615723,0.910011265371592,0.3678338774128816,-0.033795548171298484,0.1882438418380165
1715269999278085000,4.023085205078125,0.10346594452857971,0.04589258134365082,-0.044614940881729126,-0.19958342611789703,-0.6572744846343994,-0.7267439365386963,-0.011186271905899048,-0.00040984153747558594,-0.0023667216300964355,0.9099100916188595,0.3681095559113251,-0.033516967728881575,0.1882436413271707
1715269999288075300,4.0330751953125,0.0993521586060524,0.04715785011649132,-0.07876040041446686,-0.1988966464996338,-0.6579233407974243,-0.7263449430465698,-0.0047777146100997925,-0.016286253929138184,-0.0040932297706604,0.9098366442767942,0.3684136111719491,-0.03315037491729808,0.1880682289405078
1715269999298066200,4.043066162109375,0.11600810289382935,0.04549310728907585,-0.09507838636636734,-0.19797952473163605,-0.6587545871734619,-0.7258418798446655,0.00002720952033996582,-0.02041405439376831,-0.0031161904335021973,0.9097533671074546,0.3687969831507762,-0.03267804242034164,0.18780197306931157
1715269999308056000,4.05305615234375,0.1400793045759201,0.025369197130203247,-0.12037201970815659,-0.19702009856700897,-0.6598681211471558,-0.7250911593437195,0.0019669532775878906,-0.02146732807159424,0.007134616374969482,0.9096286005140706,0.3693473657391148,-0.03220181741714129,0.18740718965647712
1715269999318046200,4.063046142578125,0.11076933890581131,0.014767685905098915,-0.09745152294635773,-0.19627037644386292,-0.6608941555023193,-0.7243596315383911,-0.0040165334939956665,-0.015726327896118164,0.010049998760223389,0.9095127969913511,0.36987227959867813,-0.031854035839745276,0.18699301894169823
1715269999328037400,4.073037353515625,0.07905088365077972,0.005206937901675701,-0.08825003355741501,-0.19577129185199738,-0.6615633368492126,-0.7238836884498596,-0.0028982013463974,-0.002865433692932129,0.014075398445129395,0.9094507663585746,0.37021146545005656,-0.03164853032801804,0.18665781916864177
1715269999338027300,4.08302734375,0.053552448749542236,-0.009226329624652863,-0.10296426713466644,-0.195379376411438,-0.6620668768882751,-0.723529040813446,0.0022793859243392944,0.0042757391929626465,0.024508774280548096,0.9094300538871806,0.37046052265327456,-0.03153532771757492,0.1862830474332755
1715269999348017200,4.09301708984375,0.011896291747689247,-0.017783332616090775,-0.10013452172279358,-0.19508805871009827,-0.6623140573501587,-0.723381519317627,0.005848512053489685,0.0034548044204711914,0.02336937189102173,0.9094749842178955,0.3705611171409335,-0.031523012127848665,0.1858657961421098
1715269999358007300,4.10300732421875,-0.008801530115306377,-0.033318616449832916,-0.09657467901706696,-0.1948319524526596,-0.6623983383178711,-0.723373293876648,0.00963599979877472,0.0015554428100585938,0.0210113525390625,0.9095657864726298,0.37056312378200706,-0.03156450824526019,0.18540965542032223
1715269999367998200,4.112998291015625,-0.014729778282344341,-0.03440625220537186,-0.09142832458019257,-0.19454467296600342,-0.6625247597694397,-0.7233348488807678,0.01180538535118103,0.011951029300689697,0.024543404579162598,0.9096516370443563,0.37058672917111896,-0.03159172453841244,0.1849361236745849
1715269999377988400,4.12298828125,-0.040413036942481995,-0.030830956995487213,-0.07691409438848495,-0.1942412257194519,-0.6625877618789673,-0.7233587503433228,0.006603851914405823,0.01135784387588501,0.02206486463546753,0.9097510082031355,0.37056895903641845,-0.03161119597242906,0.1844792887704365
1715269999387978200,4.132978271484375,-0.04450583457946777,-0.014438135549426079,-0.06922641396522522,-0.19393765926361084,-0.662562370300293,-0.7234634160995483,0.0011122971773147583,0.0022230148315429688,0.015928685665130615,0.9098608925541508,0.37049774911007727,-0.03161809931989079,0.18407873521428847
1715269999397969200,4.14296923828125,-0.002709388267248869,-0.0003358994144946337,-0.09100361168384552,-0.19354407489299774,-0.662667453289032,-0.7234724760055542,0.00030672550201416016,0.0019313693046569824,0.013099610805511475,0.9099393067876758,0.37049722696436704,-0.03155237169421579,0.18370258081948487
1715269999407959300,4.152959228515625,0.05234603211283684,0.0007967429701238871,-0.10072515159845352,-0.19297146797180176,-0.6631580591201782,-0.7231758236885071,-0.00386694073677063,0.004283547401428223,0.0070046186447143555,0.9099456179795831,0.3707126992795559,-0.03137146440196639,0.18326701164120163
1715269999417949200,4.16294921875,0.06533294171094894,-0.0005039449315518141,-0.07342375814914703,-0.19243451952934265,-0.6638965010643005,-0.7226412892341614,-0.004937976598739624,0.0006731748580932617,0.0005038976669311523,0.9098786586750802,0.3710904723561485,-0.03116444910423552,0.18287021043311574
1715269999427940000,4.172940185546875,0.044280488044023514,-0.001083448762074113,-0.0489644855260849,-0.19205687940120697,-0.6645370125770569,-0.7221527695655823,0.0025732070207595825,0.00047451257705688477,-0.0007780194282531738,0.9097994741438147,0.37143294139434296,-0.031002851041407514,0.1825957208275218
1715269999437930200,4.18293017578125,0.014821935445070267,-0.0076492056250572205,-0.05451184883713722,-0.19172416627407074,-0.6649644374847412,-0.7218477129936218,0.0007603615522384644,0.007859885692596436,0.0015566349029541016,0.909767041007025,0.371648249284566,-0.030882450387098803,0.18233973817185095
1715269999447920400,4.19292041015625,-0.08162125200033188,0.0023959712125360966,-0.0720984935760498,-0.1912563592195511,-0.664919912815094,-0.7220128774642944,-0.007275789976119995,0.009051322937011719,0.007779479026794434,0.9098796566091358,0.37154570573121976,-0.030779193310284753,0.1820040267616776
1715269999457911300,4.202911376953125,-0.12085067480802536,0.017960283905267715,-0.03129194676876068,-0.19083037972450256,-0.6642583608627319,-0.7227340936660767,-0.004985705018043518,-0.004580140113830566,0.007646322250366211,0.9101246734578374,0.37106425537858756,-0.030728834800793164,0.18176936959080242
1715269999467901200,4.212901123046875,-0.038422591984272,-0.000387831125408411,-0.011389411985874176,-0.19067540764808655,-0.6637661457061768,-0.7232270836830139,0.0031448453664779663,-0.016302824020385742,0.008612275123596191,0.9102787413404321,0.37073079569488754,-0.03074306255203338,0.18167615691592848
1715269999477891300,4.222891357421875,0.05948799103498459,-0.01926431618630886,0.013022453524172306,-0.1908285766839981,-0.6639007925987244,-0.723063051700592,0.00293181836605072,0.01494443416595459,0.0038095712661743164,0.9102340439157364,0.370835955170883,-0.03080846215915542,0.1816743445324147
1715269999487882200,4.23288232421875,0.3270264267921448,-0.23957937955856323,0.07047995179891586,-0.19171421229839325,-0.6648534536361694,-0.7219526171684265,-0.007001057267189026,0.044263243675231934,-0.008516073226928711,0.9099194075931334,0.3715559677480057,-0.031142269755319058,0.18172269763329646
1715269999497872400,4.242872314453125,0.27186837792396545,-0.08943355083465576,-0.03007488325238228,-0.19276198744773865,-0.6672443151473999,-0.7194635272026062,-0.01196521520614624,0.0486072301864624,-0.009921729564666748,0.9092175472358188,0.37320738584819213,-0.031376390784645686,0.18181052768028289
1715269999507862300,4.2528623046875,0.048196617513895035,-0.09856286644935608,0.017565008252859116,-0.19335810840129852,-0.6683512330055237,-0.718275249004364,-0.011506438255310059,0.05514627695083618,0.01974320411682129,0.9089538607478812,0.373976163167345,-0.03168926914665826,0.18149544291761371
1715269999517852400,4.262852294921875,-0.05943530052900314,-0.06750161945819855,0.08753690123558044,-0.19440555572509766,-0.6680598258972168,-0.718263566493988,-0.038703009486198425,0.024383068084716797,0.017366409301757812,0.9089180304682674,0.37393974090304694,-0.0322069012268775,0.18165853335761778
1715269999527843300,4.27284326171875,-0.011532440781593323,-0.06744836270809174,-0.02157074399292469,-0.19517476856708527,-0.6676269173622131,-0.7184574604034424,0.050185710191726685,-0.042074620723724365,0.04749804735183716,0.9089620984696032,0.3737722713385743,-0.03264287137806898,0.18170489590056021
1715269999537833200,4.282833251953125,0.06447044759988785,-0.061830420047044754,-0.06343191117048264,-0.1953323781490326,-0.6679776906967163,-0.7180885076522827,0.030796825885772705,0.0033200979232788086,0.02840656042098999,0.9089281927091368,0.3740031358574691,-0.032823925217347144,0.18136638757887885
1715269999547823000,4.292822998046875,0.028628719970583916,-0.04562215507030487,-0.055043816566467285,-0.1952635645866394,-0.6685529351234436,-0.7175716757774353,-0.015826553106307983,0.019108355045318604,0.004635334014892578,0.9088612155596648,0.37434387876699576,-0.032875659974858445,0.18098966217313434
1715269999557814000,4.30281396484375,-0.05283364653587341,0.027177484706044197,-0.07784686982631683,-0.19488367438316345,-0.668488621711731,-0.7177348732948303,-0.011964529752731323,0.02317911386489868,0.0020672082901000977,0.9089681632637368,0.3742404834252995,-0.03281196353818294,0.18067742073675014
1715269999567804400,4.312804443359375,-0.042411793023347855,0.10931895673274994,-0.14191073179244995,-0.19369782507419586,-0.6680117845535278,-0.7184994220733643,-0.0006228983402252197,0.012326359748840332,0.004433870315551758,0.9092446520672595,0.3737669895499577,-0.03238110107069542,0.1803438240207897
1715269999577794300,4.322794189453125,-0.1120220273733139,0.13912533223628998,-0.17729802429676056,-0.19185493886470795,-0.6675155758857727,-0.7194544076919556,-0.01720575988292694,-0.0027267932891845703,0.003939330577850342,0.9095993613837621,0.37318945427838945,-0.031660901159328236,0.1798784278141891
1715269999587785200,4.33278515625,-0.2806958854198456,0.1467592716217041,-0.15373550355434418,-0.1899099200963974,-0.6662454605102539,-0.7211458086967468,-0.04008583724498749,0.01141446828842163,-0.0033872127532958984,0.9101584728899369,0.37211188555148134,-0.0309813700710119,0.17940035911093577
1715269999597775000,4.342775146484375,-0.446499764919281,-0.05778214707970619,-0.19918660819530487,-0.18871967494487762,-0.6638081669807434,-0.7237013578414917,-0.015473484992980957,-0.016871154308319092,-0.005363523960113525,0.9109881491995987,0.3703976037484981,-0.03090227143945684,0.17874908273612466
1715269999607765200,4.35276513671875,-0.45846885442733765,0.020548610016703606,-0.09940022975206375,-0.1875789761543274,-0.6610342264175415,-0.7265313863754272,0.02362324297428131,-0.08080238103866577,-0.0035253167152404785,0.9119266253692194,0.36847795692825797,-0.030956271378229205,0.17792011934266977
