time,seconds_elapsed,rotationRateX,rotationRateY,rotationRateZ,gravityX,gravityY,gravityZ,accelerationX,accelerationY,accelerationZ,quaternionW,quaternionX,quaternionY,quaternionZ
1715269976350776600,0.046776611328125,0.004577659070491791,-0.001316475449129939,-0.003661251859739423,0.08192916959524155,-0.23043377697467804,-0.9696328639984131,0.0066633448004722595,-0.004948273301124573,-0.002763986587524414,0.99237921932065,0.11610167710716644,0.04127916381746517,-5.551115123125783e-17
1715269976360766700,0.0567666015625,0.006993678864091635,0.002230855170637369,-0.005492707714438438,0.08196303993463516,-0.2304864376783371,-0.969617486000061,0.003959186375141144,-0.007352292537689209,-0.006563544273376465,0.9923753386992396,0.11612955064905658,0.04129388516176591,-0.000021401405280507824
1715269976370756600,0.066756591796875,0.0040399665012955666,0.002569076605141163,-0.0035771625116467476,0.0820014700293541,-0.23054109513759613,-0.9696012139320374,-0.00018385052680969238,-0.005375027656555176,-0.010516583919525146,0.9923712328071339,0.1161585688116871,0.04131060392276999,-0.00004545686834828144
1715269976380746500,0.07674658203125,0.006838682573288679,0.008358522318303585,-0.002222146140411496,0.0820516049861908,-0.23059499263763428,-0.9695841670036316,-0.002339690923690796,-0.003932580351829529,-0.007573425769805908,0.9923669521028449,0.11618672538899638,0.04133464197382425,-0.000057393899552948824
1715269976390736600,0.086736572265625,0.00044693658128380775,0.005512136034667492,-0.002983876969665289,0.08213246613740921,-0.23062285780906677,-0.9695706963539124,-0.003946445882320404,-0.005079641938209534,-0.0033907294273376465,0.9923635423501935,0.11620137237104987,0.0413749578565612,-0.00006225540892107473
1715269976400726500,0.0967265625,-0.0026894682087004185,0.00296455598436296,0.001223384984768927,0.08229002356529236,-0.2305327206850052,-0.9695788025856018,-0.0024255216121673584,-0.010113626718521118,0.005162298679351807,0.9923655199420097,0.11615604962964238,0.04145336343649196,-0.00006993011639599978
1715269976410716700,0.106716552734375,-0.002508692443370819,-0.0036978740245103836,-0.0025955215096473694,0.08248399943113327,-0.23048315942287445,-0.9695740938186646,0.00011180341243743896,-0.014038905501365662,0.01336681842803955,0.9923644537981451,0.1161323799638605,0.04154788207029406,-0.00009782031968430527
1715269976420705800,0.116705810546875,-0.0038519911468029022,-0.00480628153309226,-0.008455540984869003,0.08266251534223557,-0.23054258525371552,-0.9695447683334351,0.002450987696647644,-0.013903200626373291,0.01779305934906006,0.9923569525455866,0.11616466143530721,0.04163406726339071,-0.00013259219904149244
1715269976430696000,0.126696044921875,-0.004111436195671558,-0.005184717010706663,-0.00989717710763216,0.08274496346712112,-0.23058190941810608,-0.9695283770561218,0.0033146291971206665,-0.013604536652565002,0.018097102642059326,0.9923529340466964,0.11617938543289169,0.04169129710010837,5.551115123125783e-17
1715269976440686000,0.13668603515625,-0.004222756251692772,-0.007038010284304619,-0.006969563663005829,0.0827430784702301,-0.2306290864944458,-0.9695172905921936,-0.00031507760286331177,-0.013206422328948975,0.013355851173400879,0.992350165032883,0.11620555254770654,0.04168468430653763,-0.000049351705473932306
1715269976450676000,0.146676025390625,-0.004522788804024458,-0.005220669321715832,-0.0076332236640155315,0.08268054574728012,-0.23064349591732025,-0.9695191979408264,-0.004143543541431427,-0.010659024119377136,0.008520722389221191,0.9923505386703466,0.11621455305738193,0.04164818769960911,-0.00009183229013265404
1715269976460665900,0.156665771484375,0.0023758639581501484,-0.004615066573023796,-0.007311780005693436,0.08258488774299622,-0.23067305982112885,-0.9695203304290771,-0.006672404706478119,-0.007043659687042236,0.005729496479034424,0.9923508144357311,0.11623096576269622,0.04159562768435055,-0.00012895697264175832
1715269976470656000,0.166656005859375,0.0020023290999233723,-0.0031873458065092564,-0.006580942310392857,0.08247329294681549,-0.23076963424682617,-0.9695068597793579,-0.008544445037841797,-0.0044751763343811035,0.00211489200592041,0.9923475193294695,0.1162810867721606,0.0415364961656078,-0.0001548550954836303
1715269976480646000,0.17664599609375,0.003146423026919365,-0.0008309811819344759,-0.0035854182206094265,0.08241380751132965,-0.2309875339269638,-0.9694600105285645,-0.00726424902677536,-0.00035099685192108154,-0.0009989142417907715,0.9923355883812078,0.11639308856773986,0.04150472213662598,-0.00017432883455115178
1715269976490635800,0.1866357421875,0.0016536149196326733,0.0011333664879202843,0.002352964598685503,0.0824488177895546,-0.23130518198013306,-0.9693812727928162,-0.003667667508125305,-0.00030803680419921875,0.0022335052490234375,0.9923157739048394,0.11655553358883332,0.04152298501557501,-0.00017584046435037415
1715269976500626000,0.1966259765625,0.006537585984915495,-0.0011396415065973997,0.0014205920742824674,0.08250591903924942,-0.23163893818855286,-0.9692967534065247,-0.0030228644609451294,-0.003102332353591919,0.0019353032112121582,0.9922944781781922,0.11672611743925308,0.04155287648702423,-0.00017364728501029214
1715269976510615800,0.20661572265625,0.013175461441278458,-0.0018459116108715534,-0.0013400407042354345,0.08255299180746078,-0.23203498125076294,-0.9691979885101318,-0.00032335519790649414,-0.003484472632408142,0.005849599838256836,0.992269587313942,0.11692835637484075,0.04157834575805608,-0.00016735742639689688
1715269976520605700,0.216605712890625,0.011010844260454178,-0.00578179769217968,-0.004068981856107712,0.08252494037151337,-0.23238925635814667,-0.9691154956817627,0.003961905837059021,-0.004106774926185608,0.007613480091094971,0.9922489221272628,0.11710981080640272,0.041563617035657266,-0.00017945073603320427
1715269976530595800,0.226595947265625,0.009638890624046326,-0.0029497919604182243,-0.0060626910999417305,0.08242253214120865,-0.2326785922050476,-0.9690548181533813,0.005651220679283142,-0.003222331404685974,0.008697152137756348,0.9922336253101306,0.11725807368145127,0.041510758293340735,-0.00019525012576349088
1715269976540584700,0.236584716796875,0.007395709864795208,-0.0017742728814482689,-0.010038257576525211,0.08229707926511765,-0.23285195231437683,-0.9690238237380981,0.0017331019043922424,-0.005551427602767944,0.008010029792785645,0.9922258234380135,0.1173475322924479,0.04144446454823003,-0.00022386401186419436
1715269976550574800,0.246574951171875,0.006300884764641523,-0.0035556610673666,-0.010199112817645073,0.08217231184244156,-0.2329578995704651,-0.9690089225769043,-0.0015295818448066711,-0.008344650268554688,0.006881296634674072,0.9922220429870605,0.11740302016150389,0.04137701099679766,-0.00026382159335386346
1715269976560565000,0.25656494140625,0.007373339496552944,-0.002768697217106819,-0.007719975896179676,0.08204927295446396,-0.2329944372177124,-0.969010591506958,-0.003405451774597168,-0.005332633852958679,0.004899263381958008,0.9922223464480688,0.11742312573865797,0.041310035136732245,-0.00030569253702972254
1715269976570555000,0.266554931640625,-0.002546775620430708,-0.0017737401649355888,-0.007580026984214783,0.08199413120746613,-0.23298446834087372,-0.9690176248550415,-0.003350302577018738,-0.0034657716751098633,0.006569564342498779,0.9922241284760449,0.11741930542006519,0.04127812845627372,-0.0003399048855377562
1715269976580545000,0.276544921875,-0.006981471087783575,0.0010247095488011837,-0.008745159953832626,0.08197999000549316,-0.23294445872306824,-0.9690284729003906,-0.00229857861995697,-0.005352109670639038,0.007511138916015625,0.9922269010430462,0.11740002181798036,0.041267432901701234,-0.00036915469435938597
1715269976590535000,0.286534912109375,-0.009376025758683681,-0.0009004895109683275,-0.005414078012108803,0.08201120048761368,-0.23292967677116394,-0.9690293669700623,-0.002192460000514984,-0.008418634533882141,0.010472297668457031,0.9922270934193911,0.11739389707877954,0.04127934560414226,-0.00040135304409466555
1715269976600524800,0.29652490234375,-0.007388508878648281,0.00025319168344140053,-0.006299578584730625,0.08210660517215729,-0.23293136060237885,-0.9690209031105042,-0.0003194659948348999,-0.00956137478351593,0.01154714822769165,0.9922249754178081,0.11739587237967192,0.04132507190296468,-0.0004219349795824834
1715269976610515000,0.306514892578125,-0.0008122590370476246,0.0020963656716048717,-0.005845509935170412,0.08224759250879288,-0.23296938836574554,-0.9689998030662537,-0.0025356560945510864,-0.008363664150238037,0.012960374355316162,0.9922196307715931,0.11741741341611256,0.04139146183351832,-0.0004630866071475004
1715269976620504800,0.3165048828125,-0.004497275222092867,-0.0025577745400369167,-0.009271133691072464,0.08231040835380554,-0.23304301500320435,-0.9689767360687256,-0.0012404397130012512,-0.012013182044029236,0.013669788837432861,0.9922137646530489,0.11745689030615689,0.04141861911918699,-0.0005029987203538089
1715269976630494700,0.32649462890625,-0.012609956786036491,-0.0028712288476526737,-0.01283044833689928,0.08229774981737137,-0.2330935150384903,-0.9689657092094421,0.0013509541749954224,-0.01296977698802948,0.013384044170379639,0.992210939421586,0.11748490362170613,0.04140600121782505,-0.0005565702120489124
1715269976640486000,0.33648583984375,-0.025987014174461365,-0.0021606972441077232,-0.011669310741126537,0.08225005120038986,-0.23300565779209137,-0.9689908623695374,0.0017648562788963318,-0.010646730661392212,0.013882279396057129,0.9922172870362153,0.11744206289890238,0.04137546682503912,-0.0006094354604534447
1715269976650475800,0.346475830078125,-0.033994659781455994,0.0032796079758554697,-0.009305289015173912,0.08222724497318268,-0.23278257250785828,-0.969046413898468,-0.0015845149755477905,-0.013768985867500305,0.012366116046905518,0.9922313032513035,0.11733013070501977,0.04135734286721943,-0.0006611324178924516
1715269976660466000,0.3564658203125,-0.047122977674007416,0.005745694972574711,-0.018871363252401352,0.08226791769266129,-0.23249927163124084,-0.9691109657287598,-0.0062943920493125916,-0.018385782837867737,0.007059574127197266,0.9922474735154021,0.11718799809133547,0.04137009952587534,-0.0007217714576986389
1715269976670454800,0.366454833984375,-0.07596255838871002,0.009222717955708504,-0.029046902433037758,0.08236713707447052,-0.23206478357315063,-0.969206690788269,-0.006744548678398132,-0.017584308981895447,0.000700831413269043,0.9922715959111044,0.1169701010401632,0.04140835383975168,-0.0008141818165899317
1715269976680445000,0.37644482421875,-0.11731532961130142,0.017239898443222046,-0.039916861802339554,0.08260899782180786,-0.2313048392534256,-0.9693677425384521,-0.0066965073347091675,-0.01906144618988037,-0.0035784244537353516,0.9923120081058415,0.11658775946325711,0.04151408195703707,-0.0009398687869986988
1715269976690434800,0.386434814453125,-0.16584046185016632,0.025714343413710594,-0.04619752615690231,0.08287893980741501,-0.23006656765937805,-0.9696393609046936,-0.008934833109378815,-0.026052266359329224,-0.0027574896812438965,0.9923802700754969,0.11596250733950375,0.04162960213607575,-0.0010958291833597644
1715269976700425000,0.396425048828125,-0.2120809257030487,0.024024566635489464,-0.05053102225065231,0.08321033418178558,-0.2284875214099884,-0.9699842929840088,-0.00705370306968689,-0.023496180772781372,0.004743814468383789,0.9924669475315451,0.11516454358156387,0.0417730672295636,-0.001274524230392371
1715269976710414800,0.406414794921875,-0.29235291481018066,0.009417927823960781,-0.06173407658934593,0.08354292064905167,-0.226333886384964,-0.9704604744911194,-0.0007334575057029724,-0.026366978883743286,0.00624239444732666,0.9925866803081447,0.11407485057258629,0.041912793920782024,-0.0014848224048507608
1715269976720404700,0.41640478515625,-0.42104005813598633,0.002521672286093235,-0.07212333381175995,0.08373238891363144,-0.22313226759433746,-0.9711853265762329,0.0031359195709228516,-0.04679575562477112,0.0006805658340454102,0.9927686964144182,0.11245224139786614,0.041974335563930175,-0.0017375318287956576
1715269978428680400,2.124680419921875,-0.28465795516967773,0.7513831257820129,3.9993629455566406,-0.06189538538455963,-0.6815546154975891,-0.7291448712348938,-0.21741673350334167,-0.10015320777893066,-0.07606136798858643,0.9166099187546676,0.35569697566860875,-0.09437808594942557,-0.1562009237630873
1715269978438670300,2.13467041015625,-0.3919753432273865,0.7148461937904358,3.95219349861145,-0.08350564539432526,-0.6761502027511597,-0.7320162653923035,-0.18408772349357605,-0.19024395942687988,-0.04743313789367676,0.9204841856102646,0.3527455064285398,-0.09778787098783814,-0.13681071813906848
1715269978448660500,2.144660400390625,-0.4446021616458893,0.7021679282188416,3.9231622219085693,-0.1047760620713234,-0.6693778038024902,-0.7354966998100281,-0.17166739702224731,-0.20296728610992432,-0.02521491050720215,0.924071526716505,0.34931014380608727,-0.10116362059334882,-0.11764442206162662
1715269978458650600,2.154650634765625,-0.45318979024887085,0.7221363186836243,3.926053524017334,-0.12564630806446075,-0.6615155935287476,-0.7393308281898499,-0.16718509793281555,-0.19282406568527222,0.007656693458557129,0.9273424774065189,0.3455788527995717,-0.10445014437699651,-0.09849532677031397
1715269978468639500,2.164639404296875,-0.38904425501823425,0.8057939410209656,3.885960102081299,-0.14568012952804565,-0.6530318856239319,-0.743186891078949,-0.16999369859695435,-0.1622300148010254,0.00652313232421875,0.9302202211469932,0.34185384008725783,-0.10743608478017039,-0.07927116096615516
1715269978478629600,2.174629638671875,-0.22204114496707916,0.8654404878616333,3.7634620666503906,-0.16427981853485107,-0.6447679996490479,-0.7465161681175232,-0.19421017169952393,-0.08998852968215942,-0.02965259552001953,0.9325410035859599,0.33860599533626645,-0.10994493014519222,-0.06021229121243249
1715269978488619500,2.18461962890625,0.03635231405496597,0.9088302850723267,3.6344258785247803,-0.18132811784744263,-0.6376692652702332,-0.7486642003059387,-0.21437804400920868,-0.02480638027191162,-0.05942600965499878,0.934134248307604,0.336334899493461,-0.11201227112326552,-0.041537281808461
1715269978498609700,2.194609619140625,0.2023807018995285,0.9711557030677795,3.5226285457611084,-0.1970149576663971,-0.6318151950836182,-0.7496630549430847,-0.2211521416902542,-0.019872546195983887,-0.10620236396789551,0.935037209773785,0.3350389086079819,-0.11365472043038073,-0.023173172567701683
1715269978508599600,2.204599609375,0.3975675404071808,1.061390995979309,3.384016990661621,-0.21112708747386932,-0.6269940137863159,-0.7498692274093628,-0.20656698942184448,-0.04683417081832886,-0.12915903329849243,0.9353650526717476,0.33452522274145047,-0.11470949208671907,-0.005176619811857797
1715269978518589400,2.21458935546875,0.5538591742515564,1.123539924621582,3.2407596111297607,-0.22360531985759735,-0.6233911514282227,-0.7492557168006897,-0.20191650092601776,-0.07132631540298462,-0.13138991594314575,0.9351329423997796,0.3348451851133447,-0.11511233928349081,0.012415654542353494
1715269978528579600,2.22457958984375,0.6373853087425232,1.165946125984192,3.085475444793701,-0.23469410836696625,-0.6206068396568298,-0.7481750845909119,-0.20509470999240875,-0.12229788303375244,-0.12748098373413086,0.9344627029341318,0.33568994822921305,-0.11499883046810147,0.029446617859879176
1715269978538569500,2.234569580078125,0.7093793153762817,1.2054888010025024,2.9591851234436035,-0.24452368915081024,-0.6184102296829224,-0.7468447089195251,-0.20323021709918976,-0.1691265106201172,-0.10487031936645508,0.9334423968066536,0.3368795288236879,-0.11441081146531851,0.04590941399082116
1715269978548559400,2.244559326171875,0.6951504349708557,1.251559853553772,2.8583974838256836,-0.2532903254032135,-0.6164948344230652,-0.7455053329467773,-0.2039088010787964,-0.2086395025253296,-0.07628720998764038,0.9321576775594603,0.3382147486547235,-0.11339357892337538,0.06192652864699899
1715269978558549500,2.254549560546875,0.5975210666656494,1.2762298583984375,2.7381105422973633,-0.26106756925582886,-0.6140589714050293,-0.744832456111908,-0.19372063875198364,-0.24830681085586548,-0.042643070220947266,0.9308149366494479,0.3391714511270383,-0.11201112729592903,0.07745981375950817
1715269978568539400,2.264539306640625,0.6227223873138428,1.310703158378601,2.608792781829834,-0.26780831813812256,-0.6114575862884521,-0.7445793151855469,-0.17344531416893005,-0.2671588063240051,-0.0019568800926208496,0.929381587547907,0.33992458370660095,-0.11027977240109382,0.09240922390893908
1715269978578529300,2.274529296875,0.7105017900466919,1.3123353719711304,2.440180540084839,-0.27346691489219666,-0.609576940536499,-0.744064450263977,-0.14773669838905334,-0.26914626359939575,0.015075862407684326,0.9277088845726301,0.3409813723581354,-0.10816418506426481,0.1067172024029383
1715269978588519700,2.284519775390625,0.8143223524093628,1.2922732830047607,2.2581727504730225,-0.2780487835407257,-0.6087177395820618,-0.743069052696228,-0.10369560122489929,-0.2701733112335205,0.016537129878997803,0.9257872558512937,0.34248203751552864,-0.10569540707695485,0.12021924305842341
1715269978598509600,2.294509521484375,0.8950893878936768,1.2708933353424072,2.0929007530212402,-0.28178027272224426,-0.6090221405029297,-0.7414121031761169,-0.053562164306640625,-0.2817249894142151,0.01784038543701172,0.9236016823688167,0.3445171165043725,-0.10296559449158621,0.13291338391669955
1715269978608498700,2.304498779296875,0.8852515816688538,1.1817618608474731,1.9202244281768799,-0.28491541743278503,-0.6099554300308228,-0.7394440770149231,-0.029385119676589966,-0.29557740688323975,0.018161237239837646,0.9212924318419915,0.3467652428074886,-0.10015895411923312,0.1447146867493237
1715269978618488600,2.314488525390625,0.8384917974472046,1.1704972982406616,1.780852198600769,-0.28755438327789307,-0.6110321283340454,-0.7375311851501465,-0.036847472190856934,-0.29355472326278687,0.05625683069229126,0.9189857011159175,0.34893838688190426,-0.09734682778572756,0.15566315914671186
1715269978628478500,2.324478515625,0.8680860996246338,1.1819877624511719,1.684288740158081,-0.2894687354564667,-0.6122574806213379,-0.7357640266418457,-0.08626371622085571,-0.28585970401763916,0.10839897394180298,0.9166824536665028,0.35103522934719583,-0.094298748118295,0.1660584361626969
1715269978638468600,2.334468505859375,0.9791628122329712,1.2090617418289185,1.584108591079712,-0.2906852662563324,-0.6142417788505554,-0.733627438545227,-0.14242017269134521,-0.29837119579315186,0.12792980670928955,0.9142264633641555,0.3534436306492824,-0.09090594179751946,0.17607905964756754
1715269978648459000,2.344458984375,1.1143375635147095,1.166377067565918,1.4340612888336182,-0.2912832796573639,-0.6175137162208557,-0.7306373119354248,-0.163932204246521,-0.28634071350097656,0.10321122407913208,0.9115325196526786,0.3564756981245759,-0.08721476966303629,0.1855457413535
1715269978658449000,2.354448974609375,1.2472285032272339,1.1330465078353882,1.2702600955963135,-0.2912643551826477,-0.622154951095581,-0.7266968488693237,-0.15796968340873718,-0.23366481065750122,0.083615243434906,0.9086374449932377,0.3601595899347237,-0.0832864838318916,0.1942332137582215
1715269978668438800,2.364438720703125,1.373093605041504,1.1207427978515625,1.1601581573486328,-0.29068440198898315,-0.6281259059906006,-0.7217758297920227,-0.14434364438056946,-0.18545746803283691,0.07262128591537476,0.9055212346698741,0.3644971901728408,-0.07908142223392847,0.20228493847431
1715269978678429000,2.374428955078125,1.396308183670044,1.1152174472808838,1.0549699068069458,-0.28962650895118713,-0.6349225044250488,-0.7162330746650696,-0.13020381331443787,-0.18883848190307617,0.04927152395248413,0.902258583813139,0.3692089391234411,-0.07462042342474748,0.20987123975818578
1715269978688418800,2.384418701171875,1.3465293645858765,1.1086275577545166,0.9060502052307129,-0.28797444701194763,-0.6418413519859314,-0.7107111811637878,-0.11629191040992737,-0.2046094536781311,0.024264156818389893,0.89907512864436,0.3738257693017162,-0.06999066720255961,0.21683991656704948
1715269978698409000,2.394408935546875,1.3124457597732544,1.1187318563461304,0.7861059308052063,-0.2855430841445923,-0.6488552689552307,-0.7053027153015137,-0.11657175421714783,-0.1998233199119568,0.009608864784240723,0.896023252972191,0.37829466912369697,-0.065128910916908,0.22314487438394603
1715269978708398800,2.40439892578125,1.207619309425354,1.0832082033157349,0.6874856948852539,-0.2825911343097687,-0.6556239128112793,-0.7002139091491699,-0.1315629482269287,-0.20181328058242798,0.004046976566314697,0.8931367391883829,0.38245678173161,-0.060165178091961535,0.22894046913786764
1715269978718388700,2.414388671875,1.0719698667526245,1.0575445890426636,0.5905599594116211,-0.2792882025241852,-0.6617764234542847,-0.6957371234893799,-0.13691049814224243,-0.1950809359550476,0.008633911609649658,0.8905229023450467,0.3861029482067788,-0.055280711194958976,0.23417424584981023
1715269978728379100,2.424379150390625,0.9098545908927917,1.0005618333816528,0.5117276310920715,-0.2758256494998932,-0.6671450734138489,-0.6919809579849243,-0.1381910741329193,-0.16836518049240112,0.021372556686401367,0.8882188466410641,0.3891631631843291,-0.050611751290187745,0.23886769310146955
1715269978738367700,2.43436767578125,0.744936466217041,0.9572878479957581,0.4427778422832489,-0.2722427546977997,-0.6715245246887207,-0.689158022403717,-0.1414230465888977,-0.18012964725494385,0.034113526344299316,0.8862772552271521,0.3915179809379764,-0.04620230451336449,0.24308799750789173
1715269978748358000,2.44435791015625,0.6843287944793701,0.9450929760932922,0.3777593970298767,-0.26846054196357727,-0.6752662658691406,-0.6869821548461914,-0.14136004447937012,-0.19776540994644165,0.04832559823989868,0.8846038334575471,0.3933829932152285,-0.041937314345182275,0.2469154941341946
1715269978758348000,2.45434814453125,0.6687011122703552,0.9201351404190063,0.3418711721897125,-0.2644747793674469,-0.6789323687553406,-0.6849116683006287,-0.1505948305130005,-0.2000654935836792,0.05045127868652344,0.8830164842343896,0.3951262137123248,-0.037675446241909244,0.25047528608762437
1715269978768338000,2.464337890625,0.6263361573219299,0.8942609429359436,0.32595857977867126,-0.26053503155708313,-0.6824796199798584,-0.6828932166099548,-0.17171597480773926,-0.19326812028884888,0.04300069808959961,0.8814789547437547,0.39677445146661566,-0.033517414415321495,0.25385358548496684
1715269978778328000,2.474328125,0.5837340950965881,0.8578661680221558,0.2719038724899292,-0.25658538937568665,-0.6858281493186951,-0.6810314059257507,-0.19003939628601074,-0.1471644639968872,0.03891110420227051,0.8800333221531962,0.39826622472432366,-0.029466904462521037,0.2570161243070557
1715269978788318000,2.48431787109375,0.5372097492218018,0.8141192197799683,0.21750135719776154,-0.2525545656681061,-0.6890052556991577,-0.6793290972709656,-0.1891568899154663,-0.09056639671325684,0.03635430335998535,0.8787262572873266,0.39960296089855707,-0.025552516829961264,0.2598169160622852
1715269978798307800,2.494307861328125,0.5275672674179077,0.7953628301620483,0.19737450778484344,-0.24848559498786926,-0.6920731067657471,-0.6777092814445496,-0.17581558227539062,-0.07080543041229248,0.017705678939819336,0.8775011484080856,0.4008406082500793,-0.021729582564454064,0.26238624572663044
1715269978808298000,2.504298095703125,0.5003003478050232,0.7813471555709839,0.18839360773563385,-0.2444932907819748,-0.6950824856758118,-0.6760794520378113,-0.1684400737285614,-0.06393551826477051,0.008476972579956055,0.876289420817666,0.40204093038318944,-0.017982170550377957,0.26487119731856273
1715269978818287900,2.514287841796875,0.4420575201511383,0.7642805576324463,0.15062439441680908,-0.24046093225479126,-0.6978251934051514,-0.6746988296508789,-0.16516348719596863,-0.05872088670730591,-0.006773829460144043,0.8751850074952775,0.4030452754726593,-0.014320546515421417,0.26720903120693673
1715269978828277800,2.52427783203125,0.42806851863861084,0.7336507439613342,0.11675743758678436,-0.23629730939865112,-0.7004221677780151,-0.673477828502655,-0.15823397040367126,-0.03447169065475464,-0.016570329666137695,0.8741891878268004,0.4039136694322769,-0.010715506083038784,0.2693181371250539
1715269978838268000,2.534267822265625,0.4028127193450928,0.6930814981460571,0.11882005631923676,-0.23231074213981628,-0.7029542326927185,-0.6722255945205688,-0.1466260552406311,-0.014132678508758545,-0.017853081226348877,0.8732221276466646,0.40476456808593614,-0.007270053445603275,0.2712860945693283
1715269978848257800,2.5442578125,0.35324525833129883,0.6744702458381653,0.12240839749574661,-0.22856667637825012,-0.7051960229873657,-0.671160101890564,-0.13933800160884857,-0.015949666500091553,-0.028028011322021484,0.8723174015917872,0.4054673752636484,-0.004019795813218735,0.27320768096251913
1715269978858248000,2.554248046875,0.3035251200199127,0.6339678168296814,0.12342359870672226,-0.22500792145729065,-0.707127034664154,-0.6703304052352905,-0.13537417352199554,0.005619347095489502,-0.025058329105377197,0.8714950614231616,0.40599740907122234,-0.000949677954348721,0.2750665767376337
1715269978868238000,2.564238037109375,0.2827194333076477,0.5965006351470947,0.14280414581298828,-0.22178040444850922,-0.7087860703468323,-0.6696534156799316,-0.13616029918193817,0.0290679931640625,-0.013848662376403809,0.8707286106528545,0.40641082263944306,0.0018763570381435113,0.27687254079786183
1715269978878227000,2.57422705078125,0.25311148166656494,0.5448030829429626,0.17806068062782288,-0.2190791517496109,-0.7102342247962952,-0.6690080761909485,-0.1323613077402115,0.028913915157318115,-0.0034924745559692383,0.8699510184166525,0.40678793685208425,0.004418354479824915,0.27872833865519575
1715269978888217000,2.584217041015625,0.21808002889156342,0.5252472162246704,0.19224700331687927,-0.2168257087469101,-0.7113620638847351,-0.6685437560081482,-0.12414722144603729,0.015210270881652832,0.01583385467529297,0.8692114101689452,0.40704233409780183,0.006682460971263432,0.2806128913314301
1715269978898207000,2.59420703125,0.23827584087848663,0.48116493225097656,0.19282837212085724,-0.21480268239974976,-0.712463915348053,-0.6680232882499695,-0.11960898339748383,0.027847766876220703,0.03450894355773926,0.8684609685648498,0.4073213734185782,0.008812496073772602,0.2824665114531566
1715269978908196900,2.60419677734375,0.2302204817533493,0.4239211082458496,0.194843128323555,-0.21315649151802063,-0.7136099934577942,-0.6673268675804138,-0.11808133125305176,0.034761667251586914,0.047911643981933594,0.867691018199987,0.40770306800067446,0.010712829713478506,0.284210941709272
1715269978918187000,2.61418701171875,0.2173134684562683,0.3841760754585266,0.197121724486351,-0.21185800433158875,-0.7146709561347961,-0.6666045188903809,-0.10628776252269745,0.018961668014526367,0.04482424259185791,0.8669324604408033,0.4080983284591574,0.01238888572643157,0.28588533383207637
1715269978928177000,2.624177001953125,0.17869709432125092,0.347799688577652,0.17993035912513733,-0.2107624113559723,-0.7155900001525879,-0.6659656167030334,-0.0859142541885376,0.011274755001068115,0.04726755619049072,0.8662355193297941,0.4084417596014991,0.013875291406413054,0.28743504335374787
1715269978938166800,2.634166748046875,0.16080892086029053,0.317202627658844,0.16229276359081268,-0.2097529023885727,-0.7163344025611877,-0.665483832359314,-0.0766851007938385,-0.0036516189575195312,0.04365772008895874,0.865628279846554,0.4086888767739672,0.015214433680169642,0.28884195395678003
1715269978948157000,2.644156982421875,0.14914996922016144,0.28798750042915344,0.15041647851467133,-0.20884917676448822,-0.7170264720916748,-0.665022611618042,-0.07650546729564667,-0.00997859239578247,0.04569900035858154,0.8650671513499044,0.4089238858380634,0.016429707586503195,0.2901209547695044
1715269978958146800,2.654146728515625,0.1391998529434204,0.2619854509830475,0.13416212797164917,-0.20802390575408936,-0.7176826596260071,-0.6645733118057251,-0.08395302295684814,-0.014266252517700195,0.04903388023376465,0.8645483838664498,0.40915236851991427,0.017541005480648242,0.29127779132630294
1715269978968136700,2.66413671875,0.11888665705919266,0.2336832582950592,0.12249109148979187,-0.20727884769439697,-0.7182884216308594,-0.6641514897346497,-0.08593404293060303,-0.0229225754737854,0.04687255620956421,0.86407595331963,0.40936576497529853,0.01854538397491412,0.2923157156075605
1715269978978127000,2.674127197265625,0.06642824411392212,0.22023136913776398,0.12653988599777222,-0.2066749930381775,-0.7186559438705444,-0.6639420986175537,-0.0763297975063324,-0.03651684522628784,0.047975361347198486,0.8636779838098345,0.4094537767546198,0.019405207520394124,0.2933111181764372
1715269978988117000,2.684116943359375,0.022076064720749855,0.2159668505191803,0.11441458761692047,-0.20609037578105927,-0.7186519503593445,-0.6641280651092529,-0.07111607491970062,-0.03443038463592529,0.047322094440460205,0.8634035110678464,0.40930390576953624,0.020156422358221182,0.29427599852610337
1715269978998107000,2.69410693359375,0.035986289381980896,0.2182004451751709,0.10241518169641495,-0.20541022717952728,-0.7186034917831421,-0.664391279220581,-0.07091118395328522,-0.0055634379386901855,0.04750901460647583,0.8631704339108848,0.4091049152628014,0.020917501749431938,0.29518218200359053
1715269979008097000,2.704096923828125,0.03720990568399429,0.19788958132266998,0.09250190109014511,-0.20470473170280457,-0.7186606526374817,-0.6645470261573792,-0.07579760253429413,0.01361304521560669,0.0427820086479187,0.8629284378994246,0.4089698251619672,0.02168313810622266,0.2960202725239306
1715269979018086000,2.7140859375,0.04830782860517502,0.19890983402729034,0.08019649982452393,-0.20399928092956543,-0.7187474370002747,-0.6646702289581299,-0.07419896125793457,0.011212587356567383,0.03791552782058716,0.8626960527172216,0.40885432706899605,0.022428184288633524,0.2968009433249362
1715269979028076000,2.724075927734375,0.06475934386253357,0.2063504308462143,0.0688726082444191,-0.20315174758434296,-0.7189803123474121,-0.6646778583526611,-0.06497569382190704,0.01632833480834961,0.034428954124450684,0.8624489055760121,0.4088036770387218,0.023251479472188696,0.29752443955078617
1715269979038066000,2.73406591796875,0.34981584548950195,0.1913730800151825,-0.12859946489334106,-0.20189844071865082,-0.7198159694671631,-0.6641551852226257,-0.06259742379188538,0.01731652021408081,0.03360104560852051,0.8621416444182429,0.40906281663528876,0.024290208795541085,0.2979757986048641
1715269979048055800,2.744055908203125,0.46461647748947144,0.016039079055190086,-0.039041947573423386,-0.20048654079437256,-0.722971498966217,-0.6611486077308655,-0.057066574692726135,0.008600711822509766,0.032883286476135254,0.8613839380994239,0.41081791562106174,0.02558019605466766,0.2976443808195507
1715269979058046000,2.7540458984375,0.2723120152950287,0.10747738182544708,0.09781017899513245,-0.20046526193618774,-0.7252556681632996,-0.6586486101150513,-0.036580055952072144,-0.019754767417907715,0.024081408977508545,0.8605583690475699,0.4122933625041176,0.02626544909990955,0.2979324748055385
1715269979068035800,2.764035888671875,0.19010870158672333,0.17424896359443665,-0.016523055732250214,-0.199800506234169,-0.7266969680786133,-0.657260537147522,-0.007032409310340881,0.03162848949432373,0.03654837608337402,0.8599962145638946,0.41307629763383213,0.0271604419925445,0.2983907139202082
1715269979078025700,2.774025634765625,-0.052175313234329224,0.18173803389072418,-0.09577686339616776,-0.19812573492527008,-0.7273380756378174,-0.6570583581924438,-0.04906667768955231,0.06910431385040283,0.07377594709396362,0.859906379386808,0.41312913541344776,0.028198356551507597,0.29848007346775224
1715269979088016000,2.784015869140625,-0.27479737997055054,0.19367298483848572,-0.07610569149255753,-0.19622991979122162,-0.7263889312744141,-0.6586752533912659,-0.06600764393806458,-0.05716520547866821,0.06510841846466064,0.8603707277002508,0.41209846211212403,0.028935075854765596,0.2984962667018279
1715269979098006000,2.794006103515625,-0.35160908102989197,0.20570355653762817,-0.030598927289247513,-0.19452747702598572,-0.7243728637695312,-0.6613948345184326,-0.023993656039237976,-0.0785294771194458,0.07376366853713989,0.8610773067910384,0.41041017309869365,0.029429102200952406,0.2987364256835923
1715269979107996000,2.803995849609375,-0.3484668433666229,0.20279671251773834,-0.0698549821972847,-0.19280527532100677,-0.7221230268478394,-0.6643527746200562,-0.008259817957878113,-0.04688948392868042,0.07736241817474365,0.8618455661559564,0.4085711106887755,0.029887692906157642,0.29899621396756426
1715269979117986000,2.813986083984375,-0.27353936433792114,0.17306438088417053,-0.10628543049097061,-0.19088096916675568,-0.7202193140983582,-0.6669697761535645,-0.02626688778400421,-0.027736127376556396,0.06168419122695923,0.8625955973954862,0.4069272419685132,0.030419246783828457,0.29902150151059204
1715269979127976000,2.823975830078125,-0.19958655536174774,0.1516869217157364,-0.032401155680418015,-0.18922871351242065,-0.7187894582748413,-0.668980062007904,-0.03788313269615173,-0.012198150157928467,0.05147218704223633,0.8631661532662277,0.4056516759309893,0.030930496357345627,0.2990558645003157
1715269979137965800,2.8339658203125,-0.18415513634681702,0.15338894724845886,0.04912380129098892,-0.18831446766853333,-0.717488169670105,-0.6706328988075256,-0.02980993688106537,-0.001795947551727295,0.04143679141998291,0.8635115369487814,0.4046060251948047,0.03126540733051192,0.29944011438153917
1715269979147956000,2.8439560546875,-0.18845534324645996,0.1553650200366974,0.07895146310329437,-0.18772652745246887,-0.7161305546760559,-0.6722468733787537,-0.024187564849853516,0.014897584915161133,0.03536033630371094,0.8637633587629069,0.4035867137169211,0.0315331618327781,0.30006056268729164
1715269979157945900,2.85394580078125,-0.22948773205280304,0.1568119078874588,0.136771097779274,-0.1874110847711563,-0.7145205736160278,-0.6740455031394958,-0.03419230878353119,0.013867497444152832,0.0365639328956604,0.8640062853381245,0.4024589195454702,0.03168685758467715,0.3008584993141884
1715269979167935000,2.86393505859375,-0.1964348703622818,0.1407969892024994,0.20167140662670135,-0.18761849403381348,-0.7127222418785095,-0.6758893132209778,-0.03223016858100891,-0.00921696424484253,0.03163278102874756,0.8641647675493274,0.4013139386527952,0.03166175558779449,0.3019337395176272
1715269979177924900,2.8739248046875,-0.10524609684944153,0.11682002246379852,0.2080177217721939,-0.18824227154254913,-0.7113084197044373,-0.6772039532661438,-0.01651543378829956,-0.01107323169708252,0.02647775411605835,0.8641299699984545,0.40050156587409985,0.03156776899498828,0.3031193980508886
1715269979187914800,2.883914794921875,-0.04805140942335129,0.10883373022079468,0.18228179216384888,-0.18886829912662506,-0.7104485630989075,-0.6779319047927856,-0.008092164993286133,-0.003968000411987305,0.01542586088180542,0.863961666520068,0.40004814922831344,0.03155187402685361,0.30419777945528426
1715269979197905000,2.89390478515625,-0.05847848206758499,0.1107189804315567,0.16080018877983093,-0.18934312462806702,-0.7097766399383545,-0.6785030364990234,-0.007968321442604065,0.013105988502502441,0.006612837314605713,0.8637838506931426,0.39968675502903006,0.031606439684511295,0.30517072369628084
1715269979207894800,2.903894775390625,-0.09119978547096252,0.10860788822174072,0.15006212890148163,-0.1897180825471878,-0.7089621424674988,-0.6792494654655457,-0.011987879872322083,0.010613083839416504,0.00958704948425293,0.8636766124349643,0.3992162128775458,0.03164934447814005,0.306084358762003
1715269979217884700,2.913884765625,-0.07181117683649063,0.09786896407604218,0.09259404242038727,-0.1898677498102188,-0.7081484794616699,-0.6800558567047119,-0.013562440872192383,-0.020977556705474854,0.010362982749938965,0.8636430523210976,0.3987045259596203,0.031729770041778266,0.3068364185013531
1715269979227875000,2.923875,-0.03475147858262062,0.07233564555644989,0.08327451348304749,-0.18987248837947845,-0.7076099514961243,-0.6806148886680603,-0.006355568766593933,-0.04206967353820801,0.008938312530517578,0.8636128356698872,0.39834431737939346,0.03184925263052485,0.30737647241592503
1715269979237865000,2.933864990234375,0.013084487989544868,0.053815219551324844,0.10269268602132797,-0.19011101126670837,-0.707365870475769,-0.6808019876480103,-0.0019361227750778198,-0.05012625455856323,0.007431685924530029,0.8634802290411743,0.3982216521701095,0.03191422830600954,0.30790090849988927
1715269979247854800,2.943854736328125,0.00638317596167326,0.044906679540872574,0.09400399029254913,-0.19048036634922028,-0.7072632312774658,-0.6808053255081177,-0.000666499137878418,-0.029934704303741455,0.0057108402252197266,0.8632954607221522,0.3982170422626472,0.031945479615235084,0.30842118752738756
1715269979257845000,2.953844970703125,-0.019896898418664932,0.04174923524260521,0.08024396747350693,-0.19106172025203705,-0.7073936462402344,-0.6805070042610168,-0.0067379772663116455,-0.005024075508117676,0.004298567771911621,0.8630470124848799,0.3984082903877436,0.03189556499243962,0.308874686592814
1715269979267835000,2.9638349609375,-0.030158963054418564,0.024195276200771332,0.07693299651145935,-0.19154469668865204,-0.707370400428772,-0.6803953051567078,-0.014708384871482849,-0.013149678707122803,0.005666971206665039,0.8628747770432967,0.39848366587439066,0.03182935467168452,0.3092651049671304
1715269979277824800,2.97382470703125,-0.0534224733710289,0.017885182052850723,0.11298447102308273,-0.19231918454170227,-0.7068241834640503,-0.680744469165802,-0.007418394088745117,-0.027261018753051758,0.006748557090759277,0.8627946708874557,0.39828708738286833,0.03154627730679818,0.3097704036083524
1715269979287815000,2.98381494140625,-0.036571696400642395,0.023666106164455414,0.11486179381608963,-0.193333238363266,-0.7062764167785645,-0.6810256838798523,0.0027204304933547974,-0.023170113563537598,0.00483250617980957,0.8626571876102478,0.3981384921981412,0.031191368519836088,0.31037962854769674
1715269979297804800,2.9938046875,-0.007087039295583963,0.02016351744532585,0.09592672437429428,-0.1941250115633011,-0.7063577771186829,-0.6807159185409546,-0.006741702556610107,-0.001756906509399414,0.0037598013877868652,0.8624025682469048,0.3983457387057963,0.03102753131200736,0.3108373400643698
1715269979307794700,3.003794677734375,0.045873165130615234,0.025766806676983833,0.10238808393478394,-0.1945820450782776,-0.7069700360298157,-0.6799493432044983,-0.021284058690071106,0.006439030170440674,0.0005823969841003418,0.8620535903700434,0.3988202336104768,0.031108517634234056,0.3111883996110614
1715269979317783800,3.01378369140625,0.12313973158597946,0.015733348205685616,0.08418351411819458,-0.19488191604614258,-0.7081262469291687,-0.678659200668335,-0.018802180886268616,0.0022088289260864258,-0.00041788816452026367,0.8615746336171524,0.3996076651819356,0.03137071387292062,0.31147842895729416
1715269979327773700,3.023773681640625,0.1600847989320755,0.008326830342411995,0.06219259649515152,-0.19515302777290344,-0.7093924283981323,-0.6772575378417969,-0.010657548904418945,0.0014760494232177734,0.0008965134620666504,0.8610870175707404,0.4004621022205456,0.031643981304988855,0.31170174284453905
1715269979337763800,3.033763916015625,0.1870591640472412,0.009130306541919708,0.05490805208683014,-0.1955820471048355,-0.7104974389076233,-0.6759741902351379,-0.008748412132263184,-0.0015234947204589844,-0.000051081180572509766,0.8606251769791633,0.40124922818808484,0.031811479730145226,0.31194772232763857
1715269979347754000,3.04375390625,0.17605477571487427,0.0135897696018219,0.02001558057963848,-0.19598357379436493,-0.7117578387260437,-0.6745304465293884,-0.008011192083358765,0.01707082986831665,-0.0007166862487792969,0.8601413568227925,0.4021328145141329,0.03199949475096189,0.31212541661924115
1715269979357743900,3.053743896484375,0.164982408285141,0.019576555117964745,-0.016188228502869606,-0.19588731229305267,-0.7131580710411072,-0.6730778217315674,-0.008870378136634827,0.022148489952087402,0.0014928579330444336,0.8597274336121601,0.4030047605913915,0.03237650474930953,0.3121020907453575
1715269979367734000,3.063734130859375,0.14035312831401825,0.01461748406291008,-0.00718954112380743,-0.19548512995243073,-0.7143805027008057,-0.6718974113464355,-0.006541267037391663,0.004007458686828613,0.003943979740142822,0.8594234643818519,0.4037002691811859,0.03282359152128425,0.3119936647293249
1715269979377724000,3.073723876953125,0.2691507935523987,-0.17987635731697083,0.007233340293169022,-0.1958457976579666,-0.7153458595275879,-0.6707642674446106,0.001403018832206726,-0.015458643436431885,0.003177046775817871,0.8591138417869808,0.4043989768476861,0.03285322324129017,0.3119383630658769
1715269979387713800,3.0837138671875,0.47783705592155457,-0.13559545576572418,0.042167890816926956,-0.19756262004375458,-0.7176692485809326,-0.6677722930908203,0.007804304361343384,-0.011014282703399658,0.0017567873001098633,0.8582801827951116,0.40627147886810516,0.032516718312483095,0.31183524783475536
1715269979397704000,3.093703857421875,0.452517569065094,-0.1513270139694214,-0.00571308471262455,-0.19903868436813354,-0.7204528450965881,-0.6643278002738953,0.004367038607597351,0.001702725887298584,0.013174295425415039,0.8573612228007806,0.408398548230572,0.03235324017708749,0.3116018887635436
1715269979407693800,3.10369384765625,0.3509237766265869,-0.15288709104061127,-0.013932198286056519,-0.20012688636779785,-0.7229292392730713,-0.6613037586212158,-0.012611165642738342,0.042707622051239014,0.013568222522735596,0.8566110875022634,0.41025385478380877,0.0322473579417725,0.31123871986275053
1715269979417683700,3.11368359375,0.1328258067369461,-0.13338981568813324,-0.01502862200140953,-0.20103268325328827,-0.7242965698242188,-0.6595304012298584,-0.025087326765060425,0.037391602993011475,0.035873234272003174,0.8562179298163162,0.41135484470292255,0.03196855812658689,0.3108955633435428
1715269979427673900,3.123673828125,-0.09121613949537277,-0.06481635570526123,-0.0025677578523755074,-0.2017355114221573,-0.7240146398544312,-0.6596253514289856,0.0023946613073349,-0.04479950666427612,0.04988420009613037,0.8563006162147373,0.4113351779341896,0.031475253696167604,0.3107442368473454
1715269979437663700,3.133663818359375,-0.19545786082744598,-0.04838438332080841,-0.024561207741498947,-0.20209820568561554,-0.7227087616920471,-0.6609451174736023,0.026896774768829346,-0.053429603576660156,0.05198216438293457,0.8567130664033575,0.41057326850423664,0.030936120214569485,0.31066922379512096
1715269979447654000,3.14365380859375,-0.16201861202716827,-0.021517617627978325,-0.08197475969791412,-0.2019936889410019,-0.7214977145195007,-0.6622987985610962,0.017530173063278198,-0.04099929332733154,0.04489773511886597,0.8571988619874471,0.4097755922675579,0.030570583471742213,0.3104184653202304
1715269979457642800,3.153642822265625,-0.14115966856479645,0.028534097597002983,-0.14105352759361267,-0.20106549561023712,-0.7208033800125122,-0.6633363962173462,0.0033115744590759277,-0.02780812978744507,0.025885283946990967,0.8576730692486076,0.40913707959894874,0.03063725938240977,0.3099437927529488
1715269979467633000,3.1636328125,-0.270415723323822,0.09305290877819061,-0.16174529492855072,-0.19945798814296722,-0.7198536396026611,-0.6648513674736023,-0.0010119974613189697,0.009526431560516357,0.00760960578918457,0.8583064245906158,0.40818636609095826,0.030954951658271807,0.30941217278420163
1715269979477623000,3.173623046875,-0.5132856369018555,0.22670471668243408,-0.15767759084701538,-0.1972438097000122,-0.7176277041435242,-0.6679112315177917,-0.012259379029273987,0.01523500680923462,-0.0005762577056884766,0.8593080394295932,0.40627586060671295,0.03137366472310757,0.3091041321222169
1715269979487613000,3.183613037109375,-0.5357041358947754,0.3769852817058563,-0.04318655654788017,-0.19436557590961456,-0.7141333222389221,-0.6724846363067627,-0.010148003697395325,-0.014687538146972656,0.006591141223907471,0.860553387904077,0.4033965823320015,0.032076123289096814,0.3093382815797807
1715269979497602800,3.193602783203125,-0.23062042891979218,0.11835986375808716,-0.162846639752388,-0.1921970397233963,-0.7117305994033813,-0.6756476759910583,-0.0264308899641037,-0.018616080284118652,0.0046425461769104,0.8614304598650436,0.40138656574846915,0.03263397984191038,0.3094533638718839
1715269979507593000,3.203593017578125,-0.16797377169132233,-0.0011604141909629107,-0.30873173475265503,-0.19007611274719238,-0.7109835147857666,-0.6770328879356384,-0.05087544023990631,0.032486140727996826,-0.009856700897216797,0.8621790707870128,0.4004876525216634,0.03306368748393118,0.30848610075837835
1715269979517582800,3.213582763671875,-0.3143134117126465,0.0772065669298172,-0.2011227160692215,-0.18798066675662994,-0.7098667621612549,-0.6787875294685364,-0.007881179451942444,0.007519841194152832,-0.017760872840881348,0.8630548088037946,0.3993655853486013,0.03336714607528918,0.3074576637613966
1715269979527573000,3.223572998046875,-0.42083269357681274,0.1278710812330246,-0.16154828667640686,-0.18603450059890747,-0.707634687423706,-0.6816483736038208,0.04154898226261139,-0.034263014793395996,-0.0008772611618041992,0.8640461850804451,0.39755121225273055,0.03359852191292817,0.306999249180962
1715269979537563000,3.23356298828125,-0.3636455833911896,0.10685792565345764,-0.21717426180839539,-0.18387781083583832,-0.7052340507507324,-0.6847144365310669,0.005288928747177124,-0.019024431705474854,0.02046889066696167,0.8651155738894416,0.39559493747222807,0.0338735199943315,0.30648373617712826
1715269979547552800,3.243552734375,-0.1906421184539795,0.06185317412018776,-0.1822681427001953,-0.1818508356809616,-0.7036845684051514,-0.6868467330932617,-0.03201638162136078,-0.026234924793243408,0.020709097385406494,0.8659718880241689,0.3942158213011145,0.03421296384611375,0.3058042660878879
1715269979557543000,3.25354296875,-0.04764607921242714,0.02411724627017975,-0.09593725204467773,-0.18058039247989655,-0.7031311988830566,-0.6877480149269104,-0.022376790642738342,0.0017455816268920898,0.014469265937805176,0.8664081523425899,0.3936195229241213,0.034491510958758714,0.30530477264769595
1715269979567532800,3.26353271484375,0.06331782788038254,0.0023296584840863943,-0.04451654106378555,-0.1800231635570526,-0.7033069133758545,-0.6877143979072571,0.0015105754137039185,0.03376644849777222,0.0060127973556518555,0.8664918339128582,0.39362335222318773,0.034690691429834164,0.30503979102209
1715269979577523000,3.27352294921875,0.15287327766418457,-0.018102379515767097,-0.012019849382340908,-0.17988143861293793,-0.7041046023368835,-0.686934769153595,0.005275115370750427,0.04088127613067627,0.004927992820739746,0.8663245874768268,0.3941021375397314,0.03487304352215398,0.304875526488256
1715269979587513000,3.28351318359375,0.24990959465503693,-0.0495162270963192,0.02154064178466797,-0.18012365698814392,-0.7054852247238159,-0.6854532361030579,-0.0013949275016784668,0.027888119220733643,0.006772875785827637,0.8659281263383447,0.3950265723633111,0.03503428755003957,0.30478709776864116
1715269979597503000,3.2935029296875,0.2913318872451782,-0.07287001609802246,0.08599074184894562,-0.180929034948349,-0.7072864174842834,-0.6833817958831787,0.003087833523750305,0.015666484832763672,0.006669819355010986,0.8653089732669648,0.39633123005920284,0.03508071008198818,0.30484645373197605
1715269979607492900,3.303492919921875,0.2864214777946472,-0.06477667391300201,0.1413266360759735,-0.18224556744098663,-0.709049642086029,-0.6812013387680054,0.013330742716789246,0.011555016040802002,0.009402692317962646,0.8645682427778618,0.3977130444490281,0.034980863102769266,0.3051600275329699
1715269979617482000,3.31348193359375,0.23636683821678162,-0.03327281028032303,0.14727799594402313,-0.1836441606283188,-0.7105687260627747,-0.6792399883270264,0.011814922094345093,0.006787538528442383,0.015711605548858643,0.8638252780546828,0.3989538209788031,0.03486909057348214,0.3056566320854486
1715269979627472000,3.323471923828125,0.15050669014453888,-0.009329927153885365,0.09349852055311203,-0.18463736772537231,-0.7116983532905579,-0.6777865886688232,-0.0023133456707000732,-0.01002722978591919,0.018591701984405518,0.8632454471755899,0.39986537001731937,0.034848092511884254,0.3061058725168705
1715269979637462000,3.3334619140625,-0.006278663873672485,0.01587875559926033,0.056701891124248505,-0.18513616919517517,-0.7120662927627563,-0.6772638559341431,-0.008131667971611023,-0.03533977270126343,0.019152343273162842,0.8629843142877209,0.40019367833354413,0.034829470871738516,0.30641507249055433
1715269979647451000,3.343450927734375,-0.11759454011917114,0.036607738584280014,0.0450022928416729,-0.18530957400798798,-0.711515486240387,-0.6777950525283813,0.0029975473880767822,-0.06100648641586304,0.021667182445526123,0.863038624392878,0.3998693812859419,0.03474138277948918,0.30669500316552867
1715269979657441000,3.35344091796875,-0.14414837956428528,0.041917283087968826,0.024778779596090317,-0.1853054016828537,-0.7105293869972229,-0.6788298487663269,0.017428189516067505,-0.055522918701171875,0.02438044548034668,0.8632465587348068,0.39923168959787647,0.03462843315628791,0.3069535323462482
1715269979667431200,3.36343115234375,-0.09997421503067017,0.040947090834379196,-0.006341057829558849,-0.18508121371269226,-0.7095445394515991,-0.6799201965332031,0.013389304280281067,-0.043003737926483154,0.0203590989112854,0.8635029701515853,0.39855226346532885,0.034583249853759684,0.30711994298848716
1715269979677421000,3.373421142578125,-0.07705104351043701,0.028660865500569344,-0.015108983032405376,-0.18470649421215057,-0.7089170217514038,-0.680676281452179,-0.00007745623588562012,-0.013128995895385742,0.01000678539276123,0.863709894231001,0.3980730078875569,0.034637087923505894,0.30715381475436293
1715269979687411000,3.383410888671875,-0.07425649464130402,0.02304159477353096,0.015448659658432007,-0.18442431092262268,-0.7084068655967712,-0.681283712387085,-0.012444600462913513,0.0038169026374816895,0.005655109882354736,0.8638707185130146,0.3976879094586324,0.03467648463188461,0.30719604842955894
1715269979697401000,3.393401123046875,-0.08542872220277786,0.01917867921292782,0.016354400664567947,-0.1843429058790207,-0.707899808883667,-0.6818326115608215,-0.009840473532676697,0.013197541236877441,0.009103178977966309,0.8639868522341707,0.3973448374556915,0.03465221042884689,0.30731621228947853
1715269979707391000,3.403390869140625,-0.07341472059488297,0.022658897563815117,-0.01246785931289196,-0.1842505782842636,-0.7074856758117676,-0.6822872161865234,-0.005645066499710083,0.024792134761810303,0.008398115634918213,0.8641010250098912,0.39706128380383526,0.034622644300649374,0.3073650194118487
1715269979717381000,3.413381103515625,-0.0463402196764946,0.012852340936660767,-0.025593779981136322,-0.1840495616197586,-0.7073495984077454,-0.6824824810028076,-0.009950697422027588,0.018430471420288086,0.006930172443389893,0.8641811475060011,0.3969350520006227,0.03466020750638443,0.3072983240591488
1715269979727371000,3.42337109375,-0.04364505037665367,0.01088426448404789,-0.049053434282541275,-0.18365493416786194,-0.7075097560882568,-0.6824227571487427,-0.010055392980575562,0.00903862714767456,0.0062143802642822266,0.8642325956655689,0.39695987160384094,0.03480640026738238,0.307104836475079
1715269979737361000,3.43336083984375,-0.05073385313153267,0.009841104038059711,-0.07244770228862762,-0.18295586109161377,-0.7077353000640869,-0.6823766827583313,-0.006298929452896118,0.014467418193817139,0.005100131034851074,0.8643384098644173,0.3969669840913633,0.035055135864084264,0.30676966606130374
1715269979747351000,3.44335107421875,-0.050573479384183884,0.009609142318367958,-0.08675447106361389,-0.18218642473220825,-0.7079022526741028,-0.6824093461036682,-0.009463995695114136,0.028062105178833008,0.008520245552062988,0.8644884054766855,0.3969249752777715,0.03529710836748587,0.3063731386655275
1715269979757341000,3.4533408203125,-0.06814181804656982,0.004890554118901491,-0.10955432802438736,-0.18146462738513947,-0.7078131437301636,-0.6826940178871155,-0.011314928531646729,0.0223425030708313,0.01173466444015503,0.8647184325611633,0.39673243724531365,0.035445380408717114,0.30595578860992884
1715269979767331000,3.4633310546875,-0.10554463416337967,0.011844600550830364,-0.12979555130004883,-0.18072225153446198,-0.7074402570724487,-0.6832772493362427,-0.005694389343261719,0.02366328239440918,0.012912929058074951,0.8650502506342873,0.39635830698336844,0.035517107782967405,0.3054943075464946
1715269979777320000,3.47331982421875,-0.18060477077960968,0.025858953595161438,-0.15107740461826324,-0.17974160611629486,-0.7067147493362427,-0.6842859983444214,-0.002127915620803833,0.014881134033203125,0.016942918300628662,0.8655260987991253,0.39571427577905943,0.03559783094904845,0.30497170145841224
1715269979787310000,3.48331005859375,-0.2827138304710388,0.05127722769975662,-0.16323579847812653,-0.1785023808479309,-0.7053259015083313,-0.6860410571098328,-0.0030009299516677856,0.0014684200286865234,0.020040810108184814,0.8662192795425243,0.3945991889101453,0.03565058932225579,0.3044416271052236
1715269979797300200,3.49330029296875,-0.34913626313209534,0.06636722385883331,-0.17250999808311462,-0.1771046370267868,-0.7033835053443909,-0.6883935332298279,-0.00851854681968689,-0.009568274021148682,0.023507118225097656,0.8670799848285375,0.3931049562093972,0.03566136612970364,0.3039228412875582
1715269979807290000,3.5032900390625,-0.3854357898235321,0.08411906659603119,-0.14898255467414856,-0.17572817206382751,-0.701156735420227,-0.691012978553772,-0.012778937816619873,-0.0139923095703125,0.029788672924041748,0.8679967669412559,0.39143887777336706,0.035624670558331406,0.30346036517709174
1715269979817280000,3.513280029296875,-0.2727108299732208,-0.014500454068183899,0.07421217113733292,-0.17500481009483337,-0.6988601684570312,-0.6935184597969055,-0.013273417949676514,-0.0117112398147583,0.028982996940612793,0.8687636785765492,0.38985604938852475,0.03539809860756951,0.3033298704136333
1715269979827270100,3.523270263671875,-0.09008307009935379,0.015379413962364197,0.17063577473163605,-0.17636412382125854,-0.6973172426223755,-0.6947261095046997,-0.014675930142402649,0.0011655092239379883,0.030251681804656982,0.8688240049887435,0.3891409466273754,0.034731517103086335,0.30415106832430927
1715269979837260000,3.533260009765625,0.004643705673515797,0.019779754802584648,-0.12087409943342209,-0.17663945257663727,-0.6971063613891602,-0.6948678493499756,-0.02155698835849762,0.031807780265808105,0.02676182985305786,0.868804895039545,0.3890596081053975,0.03462209519464027,0.3043224478028034
1715269979847250000,3.54325,-0.05468188226222992,-0.009152027778327465,-0.10860703885555267,-0.175784170627594,-0.6972434520721436,-0.6949471831321716,-0.043240517377853394,0.048790574073791504,0.020264625549316406,0.8690213837468832,0.388989779397663,0.03483335639964802,0.3037689492723429
1715269979857240000,3.553239990234375,-0.11449940502643585,-0.02449290081858635,-0.006231668405234814,-0.17571792006492615,-0.69682377576828,-0.695384681224823,-0.027346059679985046,-0.024871230125427246,0.03284817934036255,0.8692226189710208,0.38872277448637566,0.03467354398889044,0.3035530706981953
1715269979867230000,3.56322998046875,-0.12928639352321625,-0.007541614584624767,-0.07124628871679306,-0.17569130659103394,-0.6961820125579834,-0.6960338354110718,0.028993308544158936,-0.023453056812286377,0.049259722232818604,0.8694674383297085,0.3883235985297546,0.034465227380908514,0.30338627411846286
1715269979877219800,3.5732197265625,-0.11274976283311844,-0.011236750520765781,-0.09341897070407867,-0.1752372682094574,-0.6957146525382996,-0.69661545753479,0.010213449597358704,-0.017984747886657715,0.050009071826934814,0.8697714569293717,0.3879538514273193,0.034410383863953314,0.30299429455990773
1715269979887210200,3.583210205078125,-0.09675455838441849,-0.044499367475509644,-0.07835626602172852,-0.17501631379127502,-0.6953907608985901,-0.6969943046569824,-0.03994952142238617,-0.029310226440429688,0.0453220009803772,0.8700217037643384,0.3877224406221269,0.03426582702329578,0.3025880220737315
1715269979897200000,3.5932001953125,-0.09551751613616943,-0.06882467865943909,-0.10258463770151138,-0.1749524474143982,-0.6951122879981995,-0.6972880363464355,-0.024601995944976807,-0.012910842895507812,0.04398304224014282,0.8702773603322868,0.38755515437232846,0.03401468088050247,0.30209488629027265
1715269979907190000,3.60318994140625,-0.12207307666540146,-0.08344702422618866,-0.11984864622354507,-0.17490342259407043,-0.6947245597839355,-0.6976866126060486,0.012000560760498047,-0.015099108219146729,0.04006338119506836,0.8706095207520119,0.3873279003601203,0.033671771082983276,0.3014672401369861
1715269979917180200,3.61318017578125,-0.14017589390277863,-0.08563375473022461,-0.12081750482320786,-0.1750040352344513,-0.693967878818512,-0.6984140872955322,0.019837364554405212,-0.03795051574707031,0.0360758900642395,0.8710271525904587,0.3869004107116147,0.0331817289562239,0.3008634741553857
1715269979927170000,3.623170166015625,-0.13557752966880798,-0.09554523229598999,-0.12434099614620209,-0.17545218765735626,-0.6929846405982971,-0.6992773413658142,0.010916635394096375,-0.04143613576889038,0.03417736291885376,0.8714649957964642,0.38640090128408183,0.03249107155550568,0.3003122448470378
1715269979937160000,3.633159912109375,-0.11737588793039322,-0.1056535392999649,-0.12406669557094574,-0.17566964030265808,-0.6927379369735718,-0.6994671821594238,0.0023297667503356934,-0.0316426157951355,0.028309404850006104,0.8717658274993523,0.3863182684542195,0.032009406120731276,0.29959630652917
1715269979947149000,3.643149169921875,-0.09148117154836655,-0.11254499852657318,-0.11680492013692856,-0.1752142608165741,-0.6928769946098328,-0.6994437575340271,-0.0012994259595870972,-0.01989161968231201,0.018154144287109375,0.8720547975951055,0.3863435796753009,0.03188688621166402,0.29873471572277954
1715269979957139000,3.653138916015625,-0.06358775496482849,-0.11709527671337128,-0.11225064843893051,-0.17513014376163483,-0.6931018829345703,-0.6992418766021729,0.0015308856964111328,-0.006376385688781738,0.019234061241149902,0.8722713055046718,0.38649577496753856,0.03162380931095096,0.29793240362967993
1715269979967129000,3.663129150390625,-0.03733096271753311,-0.11974857747554779,-0.1043114960193634,-0.17579662799835205,-0.6934331059455872,-0.6987462043762207,0.007385343313217163,-0.00015527009963989258,0.013245105743408203,0.8723580890648859,0.38686147496875883,0.031066223404236787,0.29726192262333806
1715269979977119000,3.673118896484375,-0.024112895131111145,-0.11936721205711365,-0.090966135263443,-0.1763632595539093,-0.6937853693962097,-0.6982535719871521,0.010652780532836914,0.002424776554107666,0.001537322998046875,0.8724360688157082,0.3872188195606826,0.030574692461088876,0.2966180565920673
1715269979987108900,3.68310888671875,-0.010082881897687912,-0.1135023981332779,-0.07508130371570587,-0.1764584332704544,-0.6942418217658997,-0.697775661945343,0.010717436671257019,0.011288821697235107,-0.008797764778137207,0.8725222160854511,0.3875459698564988,0.030336531940123757,0.2959610513896633
1715269979997099000,3.69309912109375,-0.003738433588296175,-0.11149944365024567,-0.06280386447906494,-0.17644643783569336,-0.6949255466461182,-0.6970975995063782,0.011041179299354553,0.020960092544555664,-0.016571104526519775,0.8725463178757826,0.3879931552206983,0.030207563834398876,0.2953163447577618
1715269980007089000,3.7030888671875,-0.012696295976638794,-0.1105652004480362,-0.04570724070072174,-0.17666250467300415,-0.695473313331604,-0.6964963674545288,0.015346571803092957,0.02016502618789673,-0.023977816104888916,0.872558367637668,0.38839820552717547,0.029977703208696915,0.2947710469294037
1715269980017079000,3.7130791015625,-0.021246375516057014,-0.11079956591129303,-0.03294483944773674,-0.1771184653043747,-0.6957594156265259,-0.696094810962677,0.023492947220802307,0.018681049346923828,-0.024486184120178223,0.8725908171464389,0.3886841991066657,0.029617482046648935,0.2943345141291468
1715269980027069200,3.723069091796875,-0.043753333389759064,-0.10047741234302521,-0.020828120410442352,-0.1776767522096634,-0.6957499384880066,-0.6959620118141174,0.030551493167877197,0.020655274391174316,-0.021445155143737793,0.87266352581775,0.38880205025806847,0.0291885013646761,0.2940059437979363
1715269980037059000,3.73305908203125,-0.059101928025484085,-0.09495535492897034,-0.010243653319776058,-0.17821407318115234,-0.6955484747886658,-0.6960259675979614,0.03166864812374115,0.028479933738708496,-0.018176913261413574,0.8727756183226797,0.38879360303235777,0.028749998402626376,0.2937274055368402
1715269980047049000,3.743049072265625,-0.08075113594532013,-0.0878542959690094,0.0046397545374929905,-0.17872020602226257,-0.695145308971405,-0.6962987780570984,0.02797861397266388,0.03604191541671753,-0.01436394453048706,0.8729233808650562,0.38865006690404064,0.028314702623865623,0.2935202522955157
1715269980057039000,3.7530390625,-0.09183654934167862,-0.07221062481403351,0.010901378467679024,-0.17917528748512268,-0.6945326924324036,-0.6967930793762207,0.026450052857398987,0.03248429298400879,-0.013289868831634521,0.8731095143915517,0.38836254987020247,0.027892466115877146,0.2933877757721241
1715269980067029000,3.763029052734375,-0.10604743659496307,-0.06896662712097168,0.021720735356211662,-0.17963522672653198,-0.6937063336372375,-0.6974974274635315,0.028542667627334595,0.03127652406692505,-0.009838879108428955,0.8733319638050927,0.3879402496984,0.027452593352313148,0.29332568051674224
1715269980077019000,3.773018798828125,-0.11782234162092209,-0.05662926658987999,0.03254275768995285,-0.18008098006248474,-0.6926488876342773,-0.6984328031539917,0.02610453963279724,0.03450673818588257,-0.01207733154296875,0.8735927795027614,0.3873683706014834,0.02700637077153048,0.29334625100170364
1715269980087009000,3.783009033203125,-0.12640395760536194,-0.04357524961233139,0.04777204617857933,-0.18039098381996155,-0.6914373636245728,-0.6995523571968079,0.023576393723487854,0.0356907844543457,-0.013322949409484863,0.8738861083254574,0.38667182177742376,0.026621781225400293,0.29342685236273813
1715269980096999000,3.7929990234375,-0.1526121199131012,-0.03244749829173088,0.06298801302909851,-0.1805925965309143,-0.6901299953460693,-0.7007902264595032,0.023625388741493225,0.03180474042892456,-0.01672375202178955,0.8741871753571899,0.3858923820448985,0.026305294767235615,0.29358456293609114
1715269980106988800,3.80298876953125,-0.1539444476366043,-0.012566466815769672,0.0674067959189415,-0.18067434430122375,-0.6887432336807251,-0.7021321654319763,0.019083738327026367,0.0331341028213501,-0.021790504455566406,0.8745029636918953,0.38503925705747055,0.02605173851108389,0.2937869171001638
1715269980116978000,3.81297802734375,-0.1360488086938858,-0.012601354159414768,0.07475685328245163,-0.1807493269443512,-0.6874102354049683,-0.703417956829071,0.01294843852519989,0.042466938495635986,-0.020992934703826904,0.8747843375678115,0.384217989853716,0.025837176012470348,0.29404303452447855
1715269980126967800,3.8229677734375,-0.13275863230228424,-0.00013270019553601742,0.08230305463075638,-0.18093642592430115,-0.686103343963623,-0.7046447992324829,0.008802011609077454,0.04077857732772827,-0.024908363819122314,0.875028171025916,0.3834348467616895,0.025599133243183303,0.2943607576445082
1715269980136958200,3.832958251953125,-0.13004273176193237,0.012729035690426826,0.09698718786239624,-0.18112483620643616,-0.6848339438438416,-0.7058302164077759,0.005633503198623657,0.031162679195404053,-0.025889694690704346,0.8752389709422352,0.3826747456687949,0.025395655952785146,0.2947403459269723
1715269980146948000,3.842947998046875,-0.13607686758041382,0.019634878262877464,0.1045813336968422,-0.18128035962581635,-0.6835786700248718,-0.7070061564445496,0.0024778395891189575,0.02357494831085205,-0.021890878677368164,0.875426077241807,0.38191613765965693,0.025238654744756506,0.2951819654038085
1715269980156938000,3.85293798828125,-0.14481790363788605,0.025953495875000954,0.10934040695428848,-0.18145868182182312,-0.6822066903114319,-0.7082844376564026,0.0012066066265106201,0.01756429672241211,-0.01878148317337036,0.8756232709082697,0.38108967957965667,0.025068895657542584,0.2956790966437997
1715269980166928100,3.86292822265625,-0.1518690437078476,0.03445776551961899,0.11275842785835266,-0.1816510260105133,-0.6807603240013123,-0.7096254825592041,0.0020398199558258057,0.01518714427947998,-0.015029609203338623,0.8758257884646414,0.3802205644263528,0.024891487323261463,0.29621259853671117
1715269980176918000,3.87291796875,-0.1598433405160904,0.03951803967356682,0.12084964662790298,-0.1818259209394455,-0.6792394518852234,-0.7110366821289062,0.0005972534418106079,0.007471203804016113,-0.014518678188323975,0.8760339652307516,0.37930248160216234,0.024724345637813533,0.2967877340757765
1715269980186908000,3.882907958984375,-0.14856773614883423,0.04157479852437973,0.12078060954809189,-0.18206235766410828,-0.677656352519989,-0.7124852538108826,0.0007574111223220825,-0.002321183681488037,-0.015572547912597656,0.8762385669196403,0.3783591688170962,0.024529888119583093,0.2974031663970704
1715269980196898000,3.89289794921875,-0.13219967484474182,0.04308827221393585,0.12045037746429443,-0.18240410089492798,-0.6760959625244141,-0.713878870010376,-0.0003046393394470215,-0.006460249423980713,-0.011401832103729248,0.8764157895080842,0.37745201211182633,0.02430139300922257,0.29805159242656803
1715269980206888000,3.902887939453125,-0.11549447476863861,0.03352139890193939,0.12313804030418396,-0.1828136444091797,-0.6746355295181274,-0.7151545882225037,-0.0010394901037216187,-0.008119046688079834,-0.012094438076019287,0.8765593008765651,0.3766215967649307,0.024059635084170028,0.29869907209029056
1715269980216877800,3.9128779296875,-0.09653037041425705,0.03915878012776375,0.12323151528835297,-0.1832721084356308,-0.6733713746070862,-0.7162278890609741,0.00048704445362091064,-0.007308006286621094,-0.015080034732818604,0.8766488856435649,0.37592310931318895,0.023829929755020574,0.2993339076828112
1715269980226868000,3.922867919921875,-0.07818273454904556,0.0465618334710598,0.116290383040905,-0.18369987607002258,-0.6723282337188721,-0.717097818851471,-0.0007026195526123047,-0.0031937360763549805,-0.015186667442321777,0.8766795170330707,0.3753546736688609,0.023663506627656955,0.29997027882466387
1715269980236858000,3.932858154296875,-0.06808242946863174,0.04935788735747337,0.11491725593805313,-0.1840870976448059,-0.671461284160614,-0.717810332775116,-0.0052592456340789795,-0.008027911186218262,-0.018273591995239258,0.8766723355504782,0.374887236196216,0.023545396813463265,0.3005841036930402
1715269980246848000,3.942847900390625,-0.052970003336668015,0.054593928158283234,0.11295837163925171,-0.18441300094127655,-0.6707262396812439,-0.7184135913848877,-0.01047225296497345,-0.016071856021881104,-0.022781968116760254,0.8766363760072007,0.3744886607741707,0.023482638340771134,0.3011899946464751
1715269980256838100,3.952838134765625,-0.05027807876467705,0.055146802216768265,0.10783018916845322,-0.18469613790512085,-0.6701215505599976,-0.7189050912857056,-0.010082319378852844,-0.020155668258666992,-0.023907959461212158,0.8765730047568273,0.3741616168571992,0.023463267141147298,0.3017822581122279
1715269980266828000,3.962828125,-0.058573078364133835,0.059239812195301056,0.09561686217784882,-0.18488803505897522,-0.6695490479469299,-0.7193889617919922,-0.011813044548034668,-0.028967857360839844,-0.025484025478363037,0.8765196064627155,0.37383713571102406,0.023480231395752366,0.302337268970319
1715269980276818000,3.97281787109375,-0.03889818117022514,0.06544391810894012,0.08705000579357147,-0.18499739468097687,-0.6690676212310791,-0.7198086977005005,-0.01499958336353302,-0.03375232219696045,-0.024331867694854736,0.8764647307419954,0.37355274975214825,0.02353692200712823,0.3028433769182832
1715269980286808000,3.98280810546875,-0.03355475887656212,0.06697575747966766,0.0770120844244957,-0.18502573668956757,-0.6686843037605286,-0.7201574444770813,-0.017137959599494934,-0.03816390037536621,-0.02473074197769165,0.876400152777013,0.3733126686352218,0.02364143286914011,0.3033173829762723
1715269980296798000,3.9927978515625,-0.014884667471051216,0.07463820278644562,0.0676012709736824,-0.1849440187215805,-0.6683641076087952,-0.7204756736755371,-0.021476879715919495,-0.04055929183959961,-0.026396214962005615,0.8763374384020346,0.37308936688731376,0.023801172489454153,0.30376064472383535
1715269980306787000,4.002787109375,0.002316689118742943,0.08085855841636658,0.055537424981594086,-0.1847686469554901,-0.6681854128837585,-0.7206863164901733,-0.026657164096832275,-0.02819526195526123,-0.021714746952056885,0.8762528597103943,0.37293367631274327,0.024027117495615535,0.3041778288847153
1715269980316777000,4.01277685546875,0.011306189000606537,0.08722883462905884,0.054263897240161896,-0.18452951312065125,-0.6681298613548279,-0.7207991480827332,-0.03553275763988495,-0.020529866218566895,-0.02309727668762207,0.8761501448397704,0.3728404136622654,0.024299331074476155,0.30456629057854767
1715269980326766800,4.022766845703125,0.006155902054160833,0.0868711769580841,0.048785507678985596,-0.18425536155700684,-0.668092668056488,-0.7209036946296692,-0.03856872022151947,-0.02108585834503174,-0.02520519495010376,0.8760450442212642,0.3727510733387741,0.024592576130616328,0.3049538861510517
1715269980336757000,4.032757080078125,-0.0051111336797475815,0.09749744832515717,0.043811261653900146,-0.183914914727211,-0.6680132150650024,-0.7210642695426941,-0.03721548616886139,-0.022416532039642334,-0.020436525344848633,0.8759596024138931,0.37262260531881464,0.02490497116091675,0.3053309298996975
1715269980346747000,4.042746826171875,-0.03291613236069679,0.10211670398712158,0.05074905604124069,-0.18352799117565155,-0.6678140163421631,-0.7213473916053772,-0.03294847905635834,-0.028765082359313965,-0.014583945274353027,0.8759033808954199,0.37241136465797253,0.025220881647649407,0.30572388684445306
1715269980356737000,4.052737060546875,-0.06027345359325409,0.10216571390628815,0.05056237429380417,-0.1831531673669815,-0.6673929691314697,-0.7218320965766907,-0.02380181849002838,-0.035503268241882324,-0.007675290107727051,0.8758966234893943,0.3720673767945264,0.025491394713746007,0.30613919569137327
1715269980366727200,4.06272705078125,-0.04587986692786217,0.10855036973953247,0.04604325443506241,-0.1827385276556015,-0.6669316291809082,-0.7223633527755737,-0.011078640818595886,-0.03198200464248657,0.003308236598968506,0.8759019597741565,0.3716907763753202,0.025773755508469665,0.30655737685247986
1715269980376717000,4.072717041015625,-0.03895767405629158,0.09341375529766083,0.04635511338710785,-0.1823461949825287,-0.6665922999382019,-0.7227756381034851,-0.0015069842338562012,-0.021762311458587646,0.011121034622192383,0.8758809774631998,0.37139323460958745,0.026062185047715958,0.3069535481390512
1715269980386707000,4.08270703125,-0.026660049334168434,0.08115921914577484,0.039625901728868484,-0.18208174407482147,-0.666302502155304,-0.7231094837188721,0.005278140306472778,-0.013537704944610596,0.015559494495391846,0.8758502721524286,0.37115295084561395,0.02628211041826603,0.3073128365574128
1715269980396697000,4.092697021484375,-0.02356705442070961,0.07880552113056183,0.03515898063778877,-0.18187835812568665,-0.6660486459732056,-0.723394513130188,0.014199495315551758,-0.0033392906188964844,0.02484714984893799,0.8758175102021679,0.37094791642468206,0.02646496548153876,0.30763794861257154
1715269980406687000,4.10268701171875,-0.027301764115691185,0.07451251149177551,0.02848902717232704,-0.1816832423210144,-0.6657893061637878,-0.7236821055412292,0.017712295055389404,0.0005213022232055664,0.0278356671333313,0.875790548875014,0.3707417749800347,0.02663601034424673,0.3079480056676982
1715269980416677000,4.112677001953125,-0.039584528654813766,0.07246454060077667,0.014560962095856667,-0.18147297203540802,-0.6655153036117554,-0.7239869236946106,0.01332111656665802,-0.0035979747772216797,0.02258622646331787,0.8757859463185341,0.37052507579549543,0.026790270153020712,0.3082086401964607
1715269980426667000,4.1226669921875,-0.05355216935276985,0.07360276579856873,0.013737445697188377,-0.18123072385787964,-0.6651991605758667,-0.7243380546569824,0.008257046341896057,-0.0070726871490478516,0.018848001956939697,0.8758101357621447,0.37027777054017963,0.02693218833397859,0.30842479148079405
1715269980436657000,4.132656982421875,-0.0549633763730526,0.07265521585941315,0.006902443245053291,-0.18093553185462952,-0.6649053692817688,-0.7246814966201782,0.006222367286682129,-0.0068171024322509766,0.017757058143615723,0.8758393305895894,0.37003384878199574,0.027096401733807923,0.3086200386107574
1715269980446647000,4.14264697265625,-0.051096148788928986,0.07873308658599854,-0.0009734565974213183,-0.1805010735988617,-0.6647235751152039,-0.7249565720558167,0.0004626065492630005,-0.008021235466003418,0.013500332832336426,0.8758671450048241,0.3698305519271914,0.027332708917562898,0.3087639959640187
1715269980456637000,4.152636962890625,-0.033951785415410995,0.07803213596343994,-0.009639382362365723,-0.17993603646755219,-0.6647010445594788,-0.725117564201355,-0.008220106363296509,-0.0038933157920837402,0.007298469543457031,0.8758767268921814,0.3696979759207474,0.02765165618437479,0.3088668799341813
1715269980466627000,4.162626953125,-0.00902363657951355,0.075352743268013,-0.012127107940614223,-0.17928339540958405,-0.6648271679878235,-0.7251636981964111,-0.013892874121665955,0.006120443344116211,0.004994690418243408,0.8758688204976088,0.3696384031578196,0.028028720258684525,0.30892673072348487
1715269980476617200,4.1726171875,0.011948224157094955,0.0693579614162445,-0.010734807699918747,-0.17855329811573029,-0.665134608745575,-0.7250618934631348,-0.017445847392082214,0.013065457344055176,0.001734316349029541,0.8758315537133692,0.36967357595697464,0.028469067109269747,0.30895029366337834
1715269980486606000,4.182606201171875,0.012425675988197327,0.07074865698814392,-0.005307817831635475,-0.1778135895729065,-0.665494441986084,-0.724913477897644,-0.021542519330978394,0.014890074729919434,-0.0010538697242736816,0.8757751225298944,0.36973797052053076,0.028932642350316867,0.3089898587329214
1715269980496596200,4.19259619140625,0.0016494605224579573,0.07057155668735504,0.004253729246556759,-0.17719903588294983,-0.665764570236206,-0.7248159646987915,-0.02441537380218506,0.012550950050354004,-0.002448439598083496,0.8757138261435368,0.36977199251991083,0.029337702066167898,0.30908492765667384
1715269980506586000,4.202586181640625,-0.020989857614040375,0.0696282684803009,0.016586296260356903,-0.17672833800315857,-0.665877640247345,-0.724826991558075,-0.024351999163627625,0.007064104080200195,-0.0009725093841552734,0.8756663035275105,0.3697390728168914,0.02965694509941394,0.3092282141049276
1715269980516576000,4.212575927734375,-0.03725458309054375,0.07107436656951904,0.020571982488036156,-0.17633767426013947,-0.6657986640930176,-0.7249946594238281,-0.01789146661758423,0.0005763769149780273,-0.0011557340621948242,0.875647747493773,0.36960503485206586,0.029912793878468624,0.30941652518091056
1715269980526566100,4.222566162109375,0.0710480809211731,0.02033955231308937,0.05681054666638374,-0.17714940011501312,-0.6660223603248596,-0.7245911359786987,-0.010182738304138184,-0.00019162893295288086,-0.0010862946510314941,0.8755042553455371,0.3699036179655979,0.029593232534106617,0.3094960368367691
1715269980536556000,4.23255615234375,0.004040020518004894,-0.060573410242795944,-0.04014263302087784,-0.17749515175819397,-0.6663087606430054,-0.7242431044578552,-0.00449642539024353,0.004397749900817871,0.005416929721832275,0.8753993147178419,0.37014681405380895,0.029491998371990152,0.3095119175673006
1715269980546546000,4.2425458984375,-0.07944619655609131,-0.056232720613479614,0.018977614119648933,-0.1780245453119278,-0.6659542918205261,-0.724439263343811,0.0052187442779541016,0.030639290809631348,0.02311486005783081,0.875495646640754,0.37004515730248244,0.029102381742787203,0.3093981396283456
1715269980556536000,4.2525361328125,-0.08081185817718506,-0.007964524440467358,0.027781225740909576,-0.17878897488117218,-0.6651670932769775,-0.7249739766120911,0.015245258808135986,-0.028756916522979736,-0.00387728214263916,0.8755990622972913,0.3697223796290486,0.028607165425491632,0.30953738449789886
1715269980566526000,4.26252587890625,-0.08006910234689713,0.04182619974017143,-0.013085179962217808,-0.1790049970149994,-0.6644266247749329,-0.7255994081497192,0.048313453793525696,-0.017687082290649414,0.02995133399963379,0.8757345288506163,0.36931620340933474,0.02838717900331969,0.3096591181780684
1715269980576515800,4.272515869140625,-0.08822157233953476,0.07170048356056213,0.013066262006759644,-0.17889542877674103,-0.6636731028556824,-0.7263156771659851,-0.03175218403339386,-0.0022052526473999023,0.014752626419067383,0.8758764733713521,0.36883395149256254,0.02834910249136005,0.3098359772812792
1715269980586506200,4.28250634765625,-0.0630715861916542,0.08356565237045288,0.03744770213961601,-0.1788318157196045,-0.6629810929298401,-0.7269630432128906,-0.04211544990539551,-0.020612657070159912,0.0086861252784729,0.875939570188099,0.368393163516264,0.028371970636595856,0.31017958008109925
1715269980596496100,4.29249609375,-0.0010665375739336014,0.084675133228302,0.022555837407708168,-0.1786251962184906,-0.6626757383346558,-0.7272922396659851,-0.008020356297492981,0.0014360547065734863,0.006604433059692383,0.8759234826332003,0.36815689986823946,0.028537418133397274,0.31049042553779405
1715269980606486000,4.302486083984375,0.05467912182211876,0.09223771095275879,0.01944073848426342,-0.1782245934009552,-0.6628721356391907,-0.7272114157676697,-0.001600220799446106,0.014800846576690674,0.0014119744300842285,0.8758098305538944,0.36818450177742756,0.02888686229090029,0.3107455556795933
1715269980616476200,4.31247607421875,0.07506322860717773,0.19201411306858063,-0.1306944489479065,-0.17734549939632416,-0.6634220480918884,-0.7269248366355896,-0.009834080934524536,0.020996451377868652,-0.003940582275390625,0.875677683798963,0.36833010231002156,0.029504510849341276,0.31088741977957607
1715269980626466000,4.322466064453125,0.1421130895614624,-0.0077112577855587006,-0.021445242688059807,-0.17573004961013794,-0.6645282506942749,-0.7263065576553345,-0.019414633512496948,0.016441643238067627,-0.008282065391540527,0.8756867494088074,0.36868241829596915,0.030331475996494578,0.3103644009921861
1715269980636456000,4.3324560546875,-0.03275245428085327,0.026126068085432053,0.10747918486595154,-0.17598804831504822,-0.6650387644767761,-0.7257765531539917,-0.00888746976852417,-0.030792593955993652,-0.011741697788238525,0.8754071129158743,0.3690302390120502,0.030469524554999933,0.3107259323185191
1715269980646446000,4.342446044921875,-0.02639671601355076,0.09003368020057678,-0.08496349304914474,-0.17512786388397217,-0.6650453209877014,-0.7259786128997803,0.01544460654258728,-0.05594778060913086,-0.00030916929244995117,0.8754645836585233,0.36885770065134404,0.03089787305889055,0.31072667076655547
1715269980656436000,4.35243603515625,0.020425917580723763,0.04369547590613365,-0.08722265809774399,-0.17428934574127197,-0.665296733379364,-0.7259501218795776,-0.009640112519264221,0.03741276264190674,0.022062242031097412,0.8755371517875209,0.3688453323724062,0.03127403926962652,0.3104994077938378
1715269980666425900,4.36242578125,-0.040181078016757965,-0.03194522485136986,-0.05320576950907707,-0.17422829568386078,-0.6654168963432312,-0.7258546352386475,-0.037044912576675415,-0.025440096855163574,0.004464864730834961,0.8755939744601199,0.36891367563709704,0.031231203786747874,0.3102622932384406
1715269980676416000,4.372416015625,-0.05193493887782097,-0.011744082905352116,-0.06228341907262802,-0.17420336604118347,-0.6651212573051453,-0.7261314392089844,0.010156095027923584,-0.05721461772918701,-0.0036963820457458496,0.8757702545182663,0.3687403268407897,0.03106199872759538,0.3099873994826329
1715269980686404900,4.38240478515625,-0.04513316974043846,0.05910292640328407,-0.1103857010602951,-0.17349305748939514,-0.6648606657981873,-0.7265400886535645,0.04118408262729645,-0.01572716236114502,0.012764453887939453,0.875994222672225,0.36844907685574363,0.031228817803497982,0.30968401766144377
1715269980696395000,4.39239501953125,-0.07268303632736206,0.0701875388622284,-0.15407539904117584,-0.1721978336572647,-0.6645379662513733,-0.7271431684494019,0.0022912174463272095,0.011003971099853516,0.004258155822753906,0.8763183150080034,0.36800632509812253,0.03161901044141119,0.3092534802499497
1715269980706385200,4.40238525390625,0.027625294402241707,0.049358952790498734,0.09700630605220795,-0.1723872721195221,-0.6642089486122131,-0.7273988723754883,-0.04642379283905029,-0.01376962661743164,0.0014773011207580566,0.8763271896752237,0.36784036080896254,0.031528329296990176,0.30943523146514884
1715269980716375000,4.412375,0.019713575020432472,0.05571724846959114,-0.19786368310451508,-0.17181937396526337,-0.6645882725715637,-0.7271867394447327,-0.014520987868309021,-0.0035636425018310547,0.006956696510314941,0.8763051273356759,0.3679569447008465,0.03184855213873214,0.309326228437695
1715269980726365200,4.422365234375,-0.0015390892513096333,0.03381434828042984,-0.23226939141750336,-0.16964058578014374,-0.6653209924697876,-0.7270281910896301,0.0008020699024200439,0.0035167932510375977,-0.004249155521392822,0.8766306478515598,0.36799431191097703,0.032650880425294154,0.30827393111913437
1715269980736355000,4.43235498046875,0.008187574334442616,-0.009300366044044495,-0.054696470499038696,-0.16879095137119293,-0.6655075550079346,-0.7270552515983582,-0.0024889707565307617,-0.02855384349822998,0.00450587272644043,0.8768306852701098,0.36795512498206984,0.03288446266898326,0.307726610013274
1715269980746345000,4.442344970703125,-0.006442554760724306,0.03779870271682739,-0.12186112254858017,-0.16850458085536957,-0.665743350982666,-0.726905882358551,0.03666861355304718,0.002718329429626465,0.007637143135070801,0.8768820543394676,0.3680492871697309,0.0329665202063886,0.30745893450687506
1715269980756335000,4.452335205078125,-0.047401972115039825,0.07332819700241089,-0.21186797320842743,-0.16680310666561127,-0.6660652756690979,-0.727003276348114,0.010583609342575073,0.016361236572265625,0.0030806660652160645,0.8771579003985145,0.3679270846852657,0.033585887078710436,0.3067501347230628
1715269980766325000,4.462324951171875,-0.05458371713757515,0.04664945229887962,-0.1359485238790512,-0.16490596532821655,-0.666106104850769,-0.7273985743522644,-0.04334598779678345,-0.0025951266288757324,0.007763683795928955,0.8775165162128851,0.3675977863942445,0.03424295235147479,0.30604575481146057
1715269980776315000,4.47231494140625,-0.05297569930553436,0.017879854887723923,-0.07587266713380814,-0.16406303644180298,-0.6658576130867004,-0.727816641330719,-0.01446482539176941,-0.0028741955757141113,0.0071288347244262695,0.8777670632872001,0.3672940166357317,0.03444970874590919,0.30566884401225725
1715269980786305000,4.482304931640625,-0.04005201905965805,0.02622540295124054,-0.03982611373066902,-0.16393235325813293,-0.6655967235565186,-0.7280846238136292,0.030387401580810547,-0.012153029441833496,0.0008202791213989258,0.877892084413864,0.3671163313369229,0.03439882231333777,0.305528840355755
1715269980796295000,4.492294921875,0.0371684655547142,0.012186550535261631,0.002342645078897476,-0.16381524503231049,-0.6656097173690796,-0.7280991077423096,0.015179365873336792,-0.005517721176147461,0.002894759178161621,0.8779009245106595,0.367101261634881,0.034454292260145986,0.30551537650116056
1715269980806284800,4.502284912109375,0.10979286581277847,-0.013056222349405289,0.048590101301670074,-0.1640227735042572,-0.6660985350608826,-0.7276052236557007,-0.012948691844940186,0.04558449983596802,0.007207334041595459,0.8777231745938041,0.36743288776831295,0.03450308678861547,0.3056219268579368
1715269980816275200,4.512275146484375,0.1160784587264061,-0.022725360468029976,0.07607738673686981,-0.16461610794067383,-0.6669818758964539,-0.7266613245010376,-0.00756409764289856,0.06267273426055908,0.002036750316619873,0.8773829654449314,0.3680759415071847,0.034488150444933946,0.30582647876953517
1715269980826265000,4.52226513671875,0.06316640228033066,-0.015666652470827103,0.102112777531147,-0.1651657074689865,-0.6675401926040649,-0.7260237336158752,0.0070235878229141235,0.049040377140045166,-0.0028580427169799805,0.8770958452158323,0.3685109461943172,0.034464859865081354,0.30612886444312704
1715269980836255000,4.5322548828125,0.014049990102648735,-0.007644678466022015,0.11354439705610275,-0.16591475903987885,-0.6675520539283752,-0.7258419394493103,0.004842966794967651,0.022135794162750244,-0.0006594061851501465,0.8768863615602744,0.3686510374167504,0.03428458307690141,0.3065800713255672
1715269980846245000,4.5422451171875,0.03160986304283142,0.002525400836020708,0.11180775612592697,-0.167100191116333,-0.6674614548683167,-0.7256532907485962,-0.001524701714515686,0.002986907958984375,0.0018984675407409668,0.8766348550077135,0.36881334450036807,0.03391267813274293,0.3071448857504434
1715269980856235000,4.552235107421875,0.0805923193693161,-0.013531329110264778,0.09689272195100784,-0.1679273545742035,-0.6677093505859375,-0.7252342104911804,-0.003932401537895203,-0.0033264756202697754,-0.0006110072135925293,0.876359995083502,0.3691128544714618,0.03374297825876951,0.3075879668643354
1715269980866225000,4.562224853515625,0.11330077797174454,-0.01812741346657276,0.09430792182683945,-0.1683306246995926,-0.6683578491210938,-0.724543035030365,-0.004551485180854797,-0.0031662583351135254,-0.005788326263427734,0.8760563797025196,0.36957417772446854,0.03381430729965429,0.30789096252344594
1715269980876215000,4.572215087890625,0.09885446727275848,-0.008661739528179169,0.07802269607782364,-0.16881634294986725,-0.6690449118614197,-0.7237955927848816,-0.002005845308303833,0.008064627647399902,-0.006352663040161133,0.8757380643487327,0.3700760323147232,0.033851837236410665,0.30818940181416987
1715269980886205000,4.582204833984375,0.049984343349933624,-0.0010195327922701836,0.06599792093038559,-0.16946955025196075,-0.6691925525665283,-0.7235063910484314,-0.0031378865242004395,0.01005852222442627,0.0005450248718261719,0.875530505101759,0.3702842667737024,0.03371021034762861,0.3085442823708403
1715269980896194800,4.59219482421875,-0.0016548829153180122,0.004380558617413044,0.0495169460773468,-0.16995306313037872,-0.6688006520271301,-0.7237552404403687,-0.006240189075469971,-0.001762092113494873,0.005829274654388428,0.8754863775110617,0.3701334197073424,0.03352070342046387,0.3088709299493298
1715269980906184000,4.602183837890625,-0.04852534458041191,0.002524868119508028,0.03686659783124924,-0.17013992369174957,-0.6682187914848328,-0.7242486476898193,-0.0026048272848129272,-0.007486224174499512,0.013295948505401611,0.87554562915897,0.36981129640661353,0.033395860642634945,0.3091024139712433
1715269980916173800,4.612173828125,-0.10028707981109619,0.004666582215577364,0.017969874665141106,-0.17023739218711853,-0.6674883961677551,-0.7248990535736084,-0.0017902255058288574,-0.004340946674346924,0.0191800594329834,0.8756789748548672,0.36938477883798454,0.033247144793725675,0.30925074810349173
1715269980926164000,4.6221640625,-0.1734335720539093,0.009796363301575184,-0.00381658086553216,-0.17020627856254578,-0.6664667129516602,-0.7258456945419312,-0.00272156298160553,-0.0024633407592773438,0.017578542232513428,0.8759269557302344,0.36876023504749267,0.0330614001635374,0.3093134865601386
1715269980936154000,4.632154052734375,-0.20083695650100708,0.021763810887932777,-0.000024239416234195232,-0.17009113729000092,-0.6651114821434021,-0.7271146774291992,-0.0029435455799102783,-0.008838772773742676,0.018603384494781494,0.876270925447987,0.36791884776288514,0.03283869116731197,0.30936485582898615
1715269980946144000,4.64214404296875,-0.1920517235994339,0.012171636335551739,0.001243158825673163,-0.1699899584054947,-0.6636927127838135,-0.7284335494041443,0.001761794090270996,-0.012683689594268799,0.015985488891601562,0.876622326478248,0.3670425518278148,0.03260345412730198,0.30943522458437595
1715269980956134100,4.652134033203125,-0.13749925792217255,0.009121784940361977,0.013050549663603306,-0.16997545957565308,-0.662445604801178,-0.7295712232589722,0.004402324557304382,-0.0004267692565917969,0.011385917663574219,0.876918817134942,0.36628776761624066,0.032367380611671714,0.3095142784760598
1715269980966124000,4.6621240234375,-0.09434055536985397,0.0023608175106346607,0.02597806788980961,-0.17010818421840668,-0.6615784764289856,-0.730326771736145,0.0005372315645217896,0.01468205451965332,0.006327807903289795,0.8770927696113304,0.3657901376553133,0.032158676439955736,0.3096317272187801
1715269980976114000,4.672114013671875,0.48832741379737854,0.03037354350090027,0.15376931428909302,-0.17207184433937073,-0.6630573272705078,-0.7285233736038208,0.0003188997507095337,0.016649186611175537,0.0019151568412780762,0.876579114609399,0.367076761197638,0.03151128474614223,0.3096302138541001
1715269980986104000,4.68210400390625,0.15128278732299805,-0.15926748514175415,-0.13232927024364471,-0.17226658761501312,-0.665363073348999,-0.7263719439506531,0.004206269979476929,0.026065528392791748,0.011421442031860352,0.8759716697800437,0.36850401638738295,0.0319188644613507,0.309612132081315
1715269980996094000,4.692093994140625,0.05853420868515968,-0.05385691300034523,0.03950479254126549,-0.17257995903491974,-0.6662518382072449,-0.7254824042320251,-0.014767482876777649,0.10343128442764282,0.03476285934448242,0.8758495153918121,0.3691169207296372,0.0318039607459881,0.30923930379400405
1715269981006083800,4.702083740234375,-0.07739806175231934,-0.009440181776881218,0.07862690091133118,-0.17346905171871185,-0.6661384701728821,-0.7253744006156921,-0.034431979060173035,-0.006453752517700195,0.004442453384399414,0.8757347525766962,0.36922143099370086,0.0314375546443072,0.30947684673924714
1715269981016074000,4.712073974609375,-0.08764857053756714,0.012427300214767456,-0.000395484094042331,-0.17376674711704254,-0.6654213070869446,-0.7259612083435059,0.08143581449985504,-0.0636436939239502,0.05336904525756836,0.8758368333243576,0.36884337876419027,0.03120835213961015,0.309662062967955
1715269981026064000,4.72206396484375,-0.0005384860560297966,0.006347569637000561,-0.004967665299773216,-0.1736418455839157,-0.6651679277420044,-0.7262231707572937,-0.0013154298067092896,0.002997457981109619,0.013973534107208252,0.8759168565863416,0.36866582137075554,0.0312076381048573,0.30964688042831967
1715269981036054000,4.732053955078125,0.03696414828300476,0.014930404722690582,0.017541104927659035,-0.17365731298923492,-0.665321946144104,-0.7260783910751343,-0.02469170093536377,0.014885485172271729,0.013721883296966553,0.875862643548895,0.3687604507411858,0.031249591802969018,0.30968345196625024
1715269981046044200,4.742044189453125,0.013165820389986038,0.04426645487546921,-0.009324263781309128,-0.17352287471294403,-0.6654701828956604,-0.7259746789932251,-0.009552106261253357,0.017642974853515625,-0.004417717456817627,0.875805919245364,0.36881954235515746,0.03138156955883359,0.3097601659368415
1715269981056034000,4.752033935546875,-0.06465787440538406,0.07161818444728851,-0.017688186839222908,-0.17299142479896545,-0.6652629971504211,-0.7262913584709167,0.009691864252090454,-0.006367921829223633,-0.0076105594635009766,0.8758764359023747,0.36858420239979695,0.031622891667737296,0.30981648281143637
1715269981066024200,4.762024169921875,-0.15630458295345306,0.07397961616516113,0.005302681587636471,-0.17247237265110016,-0.6644075512886047,-0.7271972894668579,0.00027692317962646484,-0.02684617042541504,-0.0063384175300598145,0.8760866089446571,0.3679584686735455,0.03174766772778484,0.3099531738931554
1715269981076014000,4.77201416015625,-0.2370646893978119,0.088690385222435,-0.022444792091846466,-0.17201994359493256,-0.6627680659294128,-0.7287988066673279,-0.0059586018323898315,-0.025372862815856934,-0.0017766952514648438,0.8764643486673704,0.3668727341891377,0.031701790784132794,0.31017692809503705
